aX,aY,aZ,gX,gY,gZ
0.599,-1.773,-0.189,51.100,-11.970,111.860
0.674,-1.873,-0.146,23.380,-10.710,113.330
0.665,-1.896,-0.101,15.050,-31.430,130.760
0.680,-1.920,-0.108,-0.560,-32.830,135.380
0.675,-1.846,-0.089,-11.200,-53.410,147.350
0.575,-1.770,-0.061,-15.540,-39.900,158.970
0.536,-1.730,-0.053,-25.550,-37.800,167.160
0.460,-1.672,-0.038,-30.870,-40.740,179.130
0.429,-1.630,-0.012,-44.030,-40.320,190.960
0.421,-1.621,-0.018,-55.580,-39.060,197.960
0.409,-1.572,-0.018,-67.410,-38.220,205.240
0.391,-1.498,-0.025,-78.890,-37.030,211.470
0.343,-1.435,-0.008,-88.550,-35.210,216.230
0.325,-1.390,-0.005,-97.650,-31.640,217.700
0.276,-1.301,0.007,-104.160,-28.910,222.740
0.218,-1.225,0.009,-108.920,-27.930,225.960
0.191,-1.181,0.012,-114.870,-25.760,225.050
0.151,-1.134,0.019,-125.370,-22.610,222.390
0.113,-1.095,0.009,-130.270,-22.470,224.140
0.091,-1.081,-0.023,-138.110,-21.770,222.880
0.112,-1.081,-0.045,-145.460,-20.580,220.570
0.155,-1.062,-0.054,-151.830,-20.790,221.410
0.182,-1.039,-0.039,-169.820,-19.110,217.980
0.183,-1.014,-0.047,-187.110,-15.750,217.070
0.132,-0.936,-0.042,-192.780,-19.600,219.730
0.153,-0.879,-0.050,-203.840,-15.890,214.760
0.146,-0.797,-0.085,-202.440,-17.920,216.020
0.112,-0.714,-0.117,-200.690,-16.170,223.090
0.069,-0.644,-0.151,-195.440,-19.670,233.170
0.092,-0.605,-0.210,-196.420,-8.820,226.870
0.093,-0.509,-0.256,-197.610,10.150,214.620
0.075,-0.427,-0.249,-195.370,11.760,223.370
0.002,-0.411,-0.271,-190.540,3.990,231.280
0.077,-0.408,-0.309,-196.280,10.290,225.680
0.045,-0.376,-0.294,-187.880,5.250,232.610
0.083,-0.334,-0.320,-186.620,3.990,237.510
0.071,-0.283,-0.326,-171.220,-1.470,249.970
0.079,-0.285,-0.350,-161.770,1.260,248.570
0.085,-0.256,-0.371,-151.060,2.380,250.320
0.129,-0.241,-0.365,-142.940,0.560,248.990
0.138,-0.205,-0.359,-140.840,2.310,245.000
0.109,-0.166,-0.345,-137.340,-0.210,242.410
0.049,-0.103,-0.343,-135.450,3.570,237.370
0.021,-0.024,-0.350,-130.130,0.910,235.690
-0.036,0.040,-0.366,-122.920,0.910,235.130
-0.056,0.109,-0.432,-115.360,11.200,214.480
-0.070,0.202,-0.423,-113.190,16.870,212.240
-0.115,0.171,-0.405,-110.110,11.200,210.700
-0.089,0.130,-0.362,-113.890,-8.120,208.250
-0.045,0.106,-0.411,-117.950,-17.570,198.380
-0.051,0.208,-0.429,-119.070,-28.210,196.210
-0.062,0.285,-0.462,-120.050,-37.520,190.680
-0.090,0.339,-0.499,-127.190,-42.280,175.700
-0.127,0.425,-0.515,-127.330,-49.420,164.360
-0.161,0.513,-0.497,-120.120,-55.020,155.540
-0.176,0.572,-0.487,-118.860,-58.380,147.560
-0.228,0.586,-0.515,-120.470,-59.570,138.250
-0.260,0.610,-0.539,-117.880,-62.790,128.730
-0.279,0.692,-0.565,-110.180,-61.810,116.690
-0.316,0.795,-0.595,-103.180,-60.550,108.920
-0.348,0.836,-0.623,-99.260,-60.550,99.680
-0.372,0.883,-0.643,-101.500,-61.810,88.760
-0.398,0.885,-0.671,-107.380,-65.310,75.110
-0.458,1.003,-0.493,-123.970,-74.060,66.220
-0.363,1.195,-0.399,-117.670,-79.380,63.070
0.063,0.793,-0.850,-98.980,-80.430,18.200
-0.453,1.164,-0.745,-88.550,-59.010,23.240
-0.934,1.351,-0.750,-55.160,-29.680,12.390
-0.962,1.496,-0.649,-18.620,-9.030,3.360
-0.908,1.312,-0.630,2.800,3.710,-8.120
-0.844,1.106,-0.619,6.580,2.730,-18.760
-0.884,1.042,-0.600,1.260,-2.240,-29.050
-0.906,0.879,-0.617,-6.020,-7.560,-37.800
-0.884,0.764,-0.610,-14.280,-15.470,-41.650
-0.875,0.600,-0.628,-29.400,-23.660,-43.260
-0.855,0.482,-0.680,-42.420,-29.260,-47.670
-0.905,0.470,-0.722,-53.200,-35.490,-48.230
-0.953,0.462,-0.771,-60.270,-35.560,-47.530
-0.964,0.431,-0.802,-65.940,-34.300,-43.610
-0.953,0.396,-0.809,-71.750,-31.710,-39.830
-0.933,0.357,-0.797,-73.990,-27.790,-37.310
-0.912,0.334,-0.773,-72.450,-23.100,-33.740
-0.906,0.328,-0.730,-67.620,-18.690,-29.890
-0.878,0.309,-0.680,-61.180,-15.470,-25.830
-0.853,0.278,-0.651,-54.810,-13.580,-21.700
-0.834,0.266,-0.623,-52.290,-12.390,-19.670
-0.825,0.250,-0.612,-51.590,-11.200,-19.180
-0.802,0.256,-0.599,-52.010,-11.340,-17.850
-0.788,0.274,-0.596,-52.290,-10.780,-16.940
-0.780,0.322,-0.593,-52.430,-9.450,-15.330
-0.783,0.392,-0.600,-51.590,-5.880,-15.050
-0.773,0.442,-0.591,-51.870,-2.450,-16.380
-0.772,0.504,-0.567,-50.470,-0.490,-17.430
-0.760,0.549,-0.540,-53.760,-2.170,-18.970
-0.776,0.567,-0.539,-55.720,-3.220,-23.450
-0.801,0.664,-0.524,-57.540,-2.100,-33.110
-0.804,0.757,-0.510,-63.280,-2.310,-40.950
-0.815,0.767,-0.488,-65.660,-5.950,-51.520
-0.801,0.846,-0.425,-70.000,-14.700,-59.010
-0.796,0.903,-0.398,-74.060,-17.080,-69.230
-0.789,0.905,-0.358,-75.530,-21.910,-78.540
-0.811,0.925,-0.329,-81.970,-26.670,-91.910
-0.837,0.955,-0.310,-84.770,-26.740,-105.420
-0.846,0.964,-0.289,-81.060,-24.850,-115.360
-0.824,0.938,-0.260,-78.470,-22.400,-126.140
-0.786,0.928,-0.256,-71.400,-18.200,-135.240
-0.771,0.903,-0.247,-56.700,-11.830,-147.700
-0.760,0.854,-0.236,-43.470,-1.330,-156.520
-0.693,0.786,-0.220,-33.180,9.730,-164.920
-0.643,0.733,-0.194,-20.650,21.910,-171.990
-0.619,0.670,-0.191,-9.870,30.800,-179.900
-0.569,0.583,-0.184,-4.620,37.240,-186.830
-0.518,0.504,-0.179,1.190,40.950,-192.430
-0.492,0.455,-0.196,5.460,45.780,-195.300
-0.485,0.406,-0.220,9.450,51.590,-197.470
-0.491,0.363,-0.230,13.160,59.220,-199.570
-0.500,0.313,-0.242,13.790,72.660,-201.880
-0.493,0.283,-0.239,14.490,81.690,-203.140
-0.476,0.265,-0.237,15.750,87.570,-203.350

0.632,-1.054,-0.871,51.660,66.920,-109.900
0.643,-1.053,-0.884,51.940,63.490,-105.070
0.634,-1.045,-0.901,52.640,60.200,-100.590
0.628,-1.076,-0.913,51.100,54.950,-98.210
0.630,-1.095,-0.919,48.090,50.190,-94.080
0.620,-1.118,-0.917,44.940,45.500,-89.530
0.614,-1.130,-0.939,41.580,39.690,-84.490
0.622,-1.151,-0.960,38.780,35.140,-79.170
0.634,-1.161,-0.976,36.680,30.800,-74.480
0.640,-1.196,-0.989,35.350,25.970,-66.430
0.645,-1.229,-0.994,34.720,21.070,-59.430
0.654,-1.225,-0.991,36.120,16.870,-52.150
0.653,-1.226,-0.988,41.370,13.090,-43.190
0.667,-1.267,-0.979,45.150,9.450,-33.880
0.681,-1.281,-0.970,47.390,6.510,-23.590
0.708,-1.330,-0.967,46.200,2.660,-13.930
0.750,-1.388,-0.948,45.780,-2.590,-4.130
0.774,-1.420,-0.922,48.370,-8.050,8.260
0.788,-1.450,-0.911,51.310,-11.830,21.700
0.775,-1.464,-0.893,51.660,-15.050,36.400
0.797,-1.517,-0.859,48.930,-18.760,50.750
0.843,-1.561,-0.829,43.470,-21.000,64.610
0.887,-1.559,-0.802,39.060,-22.540,79.240
0.910,-1.565,-0.749,37.660,-26.530,94.710
0.930,-1.614,-0.701,37.170,-29.680,109.970
0.960,-1.674,-0.651,36.540,-30.380,125.510
0.992,-1.724,-0.609,36.400,-29.400,141.120
1.016,-1.768,-0.580,36.400,-27.440,161.700
1.025,-1.788,-0.561,35.490,-24.780,174.790
1.037,-1.815,-0.540,31.010,-24.220,185.640
1.069,-1.830,-0.509,21.980,-26.250,194.460
1.099,-1.795,-0.477,10.360,-29.260,202.090
1.119,-1.761,-0.427,-4.480,-35.560,208.600
1.136,-1.690,-0.386,-16.450,-40.950,216.300
1.134,-1.581,-0.349,-25.060,-46.410,227.010
1.072,-1.459,-0.311,-33.250,-49.560,239.190
1.044,-1.362,-0.316,-42.630,-50.890,255.710
1.017,-1.254,-0.318,-52.360,-52.220,269.570
0.985,-1.178,-0.315,-63.560,-54.670,281.190
0.942,-1.119,-0.299,-76.580,-58.310,291.830
0.876,-1.061,-0.256,-89.600,-62.300,299.460
0.828,-1.010,-0.213,-102.130,-65.940,305.480
0.760,-0.945,-0.164,-114.170,-68.810,311.010
0.700,-0.752,-0.113,-128.520,-71.890,314.720
0.632,-0.823,-0.088,-137.270,-74.340,315.140
0.563,-0.792,-0.067,-144.340,-76.090,314.370
0.513,-0.738,-0.042,-150.430,-76.020,312.690
0.458,-0.696,-0.057,-154.000,-74.130,310.170
0.434,-0.672,-0.084,-155.330,-71.260,307.370
0.436,-0.650,-0.116,-157.080,-69.230,306.250
0.434,-0.621,-0.173,-158.900,-67.060,305.690
0.393,-0.516,-0.213,-155.400,-63.140,305.830
0.357,-0.500,-0.224,-157.710,-59.010,304.010
0.357,-0.559,-0.253,-165.340,-57.820,300.790
0.391,-0.556,-0.254,-175.770,-62.020,297.500
0.378,-0.454,-0.218,-179.760,-66.290,293.510
0.351,-0.399,-0.244,-183.960,-69.580,287.980
0.316,-0.384,-0.286,-184.100,-75.740,281.820
0.315,-0.302,-0.290,-186.970,-79.590,274.750
0.291,-0.250,-0.304,-190.610,-77.910,270.900
0.236,-0.173,-0.303,-185.080,-82.740,270.480
0.168,-0.129,-0.305,-179.060,-88.550,270.060
0.142,-0.116,-0.310,-179.690,-88.480,266.210
0.139,-0.080,-0.295,-174.440,-96.390,264.670
0.100,-0.018,-0.313,-163.730,-92.750,262.710
0.061,-0.013,-0.298,-152.460,-99.470,254.310
0.000,0.061,-0.309,-140.630,-96.600,252.630
0.024,0.058,-0.319,-129.430,-99.400,253.260
-0.008,0.080,-0.329,-117.390,-96.950,246.470
-0.078,0.160,-0.336,-103.600,-91.910,239.330
-0.083,0.214,-0.341,-87.430,-90.720,227.500
-0.082,0.264,-0.371,-83.090,-89.040,223.160
-0.133,0.311,-0.432,-77.840,-85.120,218.750
-0.173,0.423,-0.456,-73.640,-80.570,211.750
-0.172,0.460,-0.487,-69.930,-78.680,202.720
-0.175,0.495,-0.515,-67.340,-78.750,193.550
-0.213,0.557,-0.520,-65.520,-79.590,179.130
-0.237,0.633,-0.524,-63.910,-80.570,167.160
-0.262,0.708,-0.527,-60.620,-80.780,157.850
-0.304,0.765,-0.527,-57.330,-78.470,147.490
-0.336,0.805,-0.515,-56.280,-77.770,135.800
-0.374,0.834,-0.522,-53.130,-75.810,124.250
-0.418,0.907,-0.525,-45.010,-72.170,112.630
-0.454,0.960,-0.514,-38.710,-66.920,98.210
-0.507,0.975,-0.508,-30.590,-60.340,89.250
-0.538,0.947,-0.497,-28.350,-55.720,77.840
-0.537,0.917,-0.507,-26.880,-53.270,68.530
-0.550,0.896,-0.529,-23.660,-49.840,59.780
-0.583,0.903,-0.552,-19.810,-45.360,53.340
-0.638,0.913,-0.381,-31.570,-40.320,53.480
-0.584,0.864,-0.713,-15.470,-32.480,39.830
-0.552,0.761,-0.547,-27.160,-30.170,26.670
-0.608,0.824,-0.654,-24.150,-24.150,16.170
-0.691,0.940,-0.636,-15.330,-15.960,7.490
-0.794,0.866,-0.598,-14.070,-8.400,-0.910
-0.768,0.791,-0.610,-13.160,-6.790,-8.330
-0.799,0.751,-0.608,-17.640,-6.300,-16.240
-0.852,0.643,-0.602,-27.160,-6.790,-25.830
-0.843,0.525,-0.601,-38.570,-11.060,-33.740
-0.812,0.469,-0.583,-46.060,-16.520,-37.030
-0.992,0.457,-0.551,-50.120,-17.850,-38.080
-0.906,0.423,-0.554,-49.840,-17.430,-36.190
-0.888,0.395,-0.568,-48.790,-16.170,-32.060
-0.847,0.327,-0.598,-49.000,-15.820,-29.120
-0.828,0.315,-0.612,-48.020,-15.610,-25.830
-0.821,0.290,-0.748,-47.250,-13.090,-22.820
-0.808,0.256,-0.635,-47.880,-10.570,-20.580
-0.810,0.285,-0.618,-44.310,-8.260,-17.290
-0.813,0.341,-0.606,-34.790,-4.830,-13.650
-0.810,0.372,-0.593,-26.180,-2.730,-11.550
-0.806,0.415,-0.587,-19.250,-1.750,-10.640
-0.787,0.475,-0.596,-11.270,-0.980,-11.060
-0.761,0.554,-0.595,-4.200,-2.170,-12.530
-0.770,0.615,-0.596,-0.910,-2.240,-19.810
-0.773,0.665,-0.598,-1.120,-0.980,-27.440
-0.746,0.730,-0.562,-1.260,-4.200,-37.100
-0.700,0.765,-0.525,-3.640,-8.190,-47.530
-0.710,0.799,-0.493,-8.890,-11.340,-63.140
-0.711,0.855,-0.461,-14.910,-13.930,-75.110

0.625,-1.143,-0.750,13.160,14.840,-67.340
0.642,-1.143,-0.752,13.860,10.710,-62.090
0.659,-1.131,-0.739,16.450,6.860,-53.970
0.667,-1.105,-0.738,19.180,3.500,-47.110
0.657,-1.095,-0.729,21.560,1.540,-39.970
0.673,-1.105,-0.712,22.960,-1.470,-32.830
0.699,-1.137,-0.701,22.820,-3.780,-25.970
0.714,-1.147,-0.687,22.260,-6.300,-18.690
0.722,-1.181,-0.678,19.670,-8.890,-9.030
0.733,-1.206,-0.671,16.380,-11.690,-1.890
0.739,-1.209,-0.663,13.370,-14.420,5.950
0.732,-1.200,-0.662,10.920,-16.800,14.140
0.716,-1.200,-0.654,9.590,-19.180,22.470
0.715,-1.220,-0.639,6.860,-21.140,30.730
0.721,-1.256,-0.625,2.170,-23.800,38.990
0.745,-1.301,-0.615,-5.390,-27.300,49.700
0.768,-1.344,-0.620,-13.230,-30.660,58.800
0.773,-1.355,-0.622,-17.570,-33.250,68.180
0.771,-1.398,-0.630,-23.870,-35.910,77.840
0.797,-1.434,-0.641,-29.260,-42.210,88.410
0.835,-1.471,-0.652,-34.090,-46.060,99.750
0.876,-1.516,-0.672,-39.130,-50.330,112.000
0.908,-1.543,-0.679,-47.810,-55.370,128.520
0.944,-1.596,-0.690,-55.720,-61.600,140.980
0.970,-1.587,-0.682,-63.000,-68.670,153.790
0.969,-1.550,-0.677,-67.830,-76.580,166.810
0.952,-1.531,-0.659,-74.130,-87.920,179.410
0.926,-1.503,-0.640,-80.990,-96.040,190.400
0.904,-1.469,-0.615,-89.390,-104.580,200.480
0.873,-1.444,-0.582,-101.640,-113.050,212.380
0.857,-1.434,-0.570,-111.510,-121.870,219.240
0.834,-1.389,-0.555,-117.110,-130.690,227.990
0.831,-1.322,-0.529,-119.840,-137.830,236.740
0.780,-1.265,-0.511,-119.070,-143.220,245.280
0.747,-1.228,-0.487,-117.530,-143.640,252.420
0.722,-1.189,-0.454,-116.760,-143.850,259.560
0.672,-1.111,-0.427,-122.710,-145.110,270.270
0.620,-1.054,-0.466,-135.310,-146.370,275.380
0.584,-0.938,-0.506,-145.600,-148.960,280.490
0.514,-0.799,-0.506,-150.920,-152.950,285.110
0.451,-0.724,-0.505,-152.740,-154.980,287.770
0.384,-0.655,-0.496,-149.100,-153.580,291.410
0.333,-0.580,-0.490,-126.420,-150.500,295.120
0.276,-0.453,-0.489,-134.890,-147.140,296.030
0.218,-0.406,-0.485,-129.010,-143.080,294.980
0.168,-0.395,-0.467,-127.680,-140.980,292.250
0.149,-0.386,-0.465,-123.900,-139.650,288.400
0.114,-0.311,-0.441,-117.110,-138.110,285.460
0.087,-0.271,-0.409,-109.970,-136.570,280.000
0.067,-0.282,-0.404,-108.080,-134.540,273.210
0.041,-0.298,-0.392,-111.160,-134.260,262.920
0.035,-0.228,-0.372,-108.500,-135.520,255.360
0.003,-0.133,-0.374,-102.270,-134.820,249.620
-0.029,-0.098,-0.393,-95.760,-131.390,242.900
-0.049,-0.079,-0.399,-93.730,-128.450,236.180
-0.068,-0.085,-0.395,-94.430,-126.490,226.940
-0.068,-0.078,-0.382,-96.040,-126.910,219.380
-0.077,-0.020,-0.373,-93.590,-127.610,209.860
-0.211,0.032,-0.419,-89.320,-114.240,199.710
-0.103,0.074,-0.377,-83.860,-115.290,196.770
-0.140,0.138,-0.398,-75.110,-104.160,184.520
-0.156,0.188,-0.422,-70.630,-92.470,183.330
-0.248,0.187,-0.388,-70.980,-93.520,186.900
-0.208,0.138,-0.427,-69.790,-95.270,183.050
-0.218,0.182,-0.426,-68.110,-93.870,170.520
-0.232,0.250,-0.423,-64.610,-87.990,161.910
-0.254,0.232,-0.430,-59.010,-82.740,158.620
-0.303,0.221,-0.469,-52.220,-74.830,154.840
-0.293,0.260,-0.471,-47.390,-68.530,147.700
-0.261,0.293,-0.451,-43.330,-64.190,140.280
-0.299,0.298,-0.424,-37.310,-62.370,135.170
-0.354,0.256,-0.413,-35.000,-62.860,131.880
-0.316,0.300,-0.380,-33.740,-64.400,133.840
-0.318,0.284,-0.374,-30.590,-70.630,131.880
-0.345,0.296,-0.370,-29.820,-73.080,131.950
-0.377,0.307,-0.402,-30.030,-72.520,129.710
-0.423,0.493,-0.426,-21.490,-69.650,127.470
-0.447,0.435,-0.469,-13.930,-64.400,126.420
-0.446,0.444,-0.492,-7.490,-59.080,122.640
-0.459,0.479,-0.491,-1.190,-55.650,120.330
-0.480,0.485,-0.493,3.640,-51.450,118.370
-0.507,0.468,-0.475,2.800,-50.750,114.240
-0.500,0.430,-0.453,2.870,-49.910,109.410
-0.519,0.463,-0.410,5.880,-50.610,106.540
-0.567,0.489,-0.424,8.330,-49.630,104.790
-0.604,0.526,-0.454,11.130,-47.110,102.130
-0.616,0.543,-0.488,14.630,-44.590,98.420
-0.614,0.590,-0.622,17.360,-43.540,94.360
-0.639,0.599,-0.506,17.220,-42.980,88.340
-0.669,0.611,-0.506,14.630,-41.370,81.900
-0.700,0.616,-0.506,10.360,-42.000,77.490
-0.756,0.644,-0.519,6.440,-40.250,70.350
-0.779,0.692,-0.527,7.420,-38.150,65.450
-0.804,0.722,-0.534,8.890,-37.380,59.360
-0.816,0.718,-0.543,10.430,-35.140,52.850
-0.819,0.720,-0.540,13.020,-31.640,45.360
-0.824,0.704,-0.527,11.340,-29.820,40.250
-0.835,0.679,-0.520,6.230,-27.440,35.630
-0.850,0.679,-0.405,0.210,-27.790,27.090
-0.788,0.689,-0.543,2.100,-23.520,20.860
-0.842,0.658,-0.474,-8.330,-19.110,12.390
-0.949,0.672,-0.428,-8.330,-18.970,7.770
-0.905,0.685,-0.477,-9.660,-14.910,1.050
-0.885,0.672,-0.480,-12.460,-7.910,-4.340
-0.919,0.677,-0.454,-9.590,-2.870,-6.720
-0.923,0.654,-0.468,-6.440,0.700,-8.680
-0.915,0.603,-0.463,-3.500,2.310,-10.360
-0.879,0.395,-0.445,-6.930,1.610,-12.810
-0.868,0.442,-0.448,-13.230,0.700,-14.210
-0.863,0.406,-0.455,-19.740,-0.280,-14.910
-0.843,0.374,-0.466,-26.180,-1.750,-16.030
-0.838,0.374,-0.477,-30.170,-2.940,-16.380
-0.839,0.390,-0.493,-31.220,-3.080,-16.310
-0.833,0.401,-0.507,-29.890,-2.800,-15.540
-0.824,0.403,-0.528,-26.110,-2.170,-15.050
-0.811,0.405,-0.541,-22.120,-1.190,-13.580
-0.797,0.402,-0.548,-17.290,0.490,-12.320
-0.790,0.405,-0.553,-9.940,2.030,-10.990
-0.775,0.407,-0.548,-3.920,3.290,-9.800

0.460,-0.790,-1.261,-24.080,68.110,-77.700
0.477,-0.800,-1.286,-24.220,60.620,-73.920
0.481,-0.796,-1.299,-22.890,55.720,-69.090
0.486,-0.805,-1.307,-21.070,50.050,-63.490
0.488,-0.816,-1.310,-18.830,44.870,-57.260
0.495,-0.807,-1.308,-15.190,40.250,-49.490
0.505,-0.814,-1.314,-13.790,35.210,-43.330
0.529,-0.815,-1.315,-12.600,29.680,-37.870
0.553,-0.809,-1.313,-10.080,21.070,-32.200
0.583,-0.808,-1.296,-7.280,13.860,-26.670
0.602,-0.798,-1.274,-5.250,7.000,-21.420
0.611,-0.783,-1.251,-2.870,0.420,-15.330
0.620,-0.777,-1.235,-1.330,-5.390,-7.630
0.639,-0.756,-1.222,1.120,-11.270,-0.980
0.653,-0.741,-1.216,3.430,-16.660,5.390
0.664,-0.761,-1.202,3.080,-22.400,11.830
0.687,-0.761,-1.179,1.890,-28.630,18.550
0.719,-0.762,-1.163,0.840,-37.520,25.130
0.740,-0.766,-1.150,0.770,-44.240,32.410
0.757,-0.768,-1.150,2.520,-50.120,40.180
0.773,-0.772,-1.156,5.250,-55.510,48.370
0.794,-0.793,-1.164,7.420,-60.550,60.550
0.813,-0.818,-1.173,7.630,-65.520,69.860
0.844,-0.907,-1.189,-0.280,-71.820,79.030
0.896,-0.947,-1.216,-10.780,-80.150,88.060
0.939,-0.945,-1.245,-21.980,-88.200,95.900
0.982,-0.964,-1.291,-30.730,-102.200,105.980
1.011,-0.978,-1.329,-37.520,-115.010,117.880
1.045,-0.953,-1.362,-44.170,-128.030,128.870
1.053,-0.891,-1.362,-45.360,-141.750,145.040
1.030,-0.869,-1.339,-45.150,-154.490,155.330
0.986,-0.855,-1.298,-47.180,-166.530,164.990
0.934,-0.845,-1.290,-48.510,-195.160,175.770
0.890,-0.814,-1.257,-51.870,-191.310,185.290
0.855,-0.787,-1.231,-55.020,-202.230,192.850
0.805,-0.734,-1.185,-56.420,-212.240,198.590
0.738,-0.707,-1.143,-58.520,-220.710,203.210
0.682,-0.705,-1.105,-63.350,-227.080,205.380
0.636,-0.678,-1.060,-64.890,-232.260,208.530
0.595,-0.617,-0.987,-64.960,-237.300,211.470
0.532,-0.552,-0.942,-61.320,-241.150,214.340
0.441,-0.510,-0.952,-57.820,-241.220,217.770
0.407,-0.462,-0.932,-54.530,-241.640,220.990
0.394,-0.406,-0.913,-57.120,-243.740,222.670
0.371,-0.406,-0.895,-61.180,-246.050,223.090
0.345,-0.333,-0.825,-58.310,-249.060,223.090
0.286,-0.277,-0.740,-57.470,-252.070,222.250
0.230,-0.285,-0.701,-57.470,-254.590,220.640
0.166,-0.243,-0.625,-55.510,-257.110,220.220
0.129,-0.210,-0.651,-53.830,-255.990,219.240
0.099,-0.194,-0.640,-53.130,-255.780,218.260
0.103,-0.156,-0.597,-50.540,-252.910,212.170
0.066,-0.095,-0.538,-48.090,-251.650,208.670
0.013,-0.099,-0.494,-43.750,-251.650,208.180
-0.046,-0.090,-0.467,-38.010,-249.480,203.770
-0.071,-0.028,-0.435,-28.490,-243.250,200.550
-0.133,0.013,-0.430,-19.320,-236.600,197.820
-0.170,0.019,-0.468,-14.350,-227.500,192.920
-0.180,0.007,-0.497,-10.220,-214.900,187.110
-0.169,0.053,-0.471,-8.960,-204.260,182.350
-0.182,0.026,-0.457,-14.000,-191.730,175.840
-0.248,0.002,-0.467,-16.730,-176.610,169.680
-0.201,0.030,-0.406,-11.060,-170.870,169.540
-0.235,0.061,-0.401,-5.530,-158.130,161.560
-0.255,0.111,-0.380,6.160,-146.580,161.490
-0.342,0.079,-0.414,8.470,-125.650,154.000
-0.235,0.072,-0.396,5.040,-115.500,158.760
-0.216,0.017,-0.385,-7.140,-109.760,144.620
-0.105,0.052,-0.394,-16.520,-92.820,130.970
-0.213,0.117,-0.379,-18.340,-77.840,105.350
-0.172,0.197,-0.342,-20.790,-55.230,77.000
-0.402,0.345,-0.239,12.180,-29.890,84.140
-0.394,0.272,-0.164,19.180,-36.960,84.630
-0.145,0.330,-0.165,30.450,-55.860,97.580
-0.185,0.314,-0.201,43.330,-45.010,92.750
-0.515,0.340,-0.241,59.640,-17.010,80.150
-0.689,0.338,-0.157,66.850,-21.210,101.150
-0.499,0.238,-0.240,62.650,-8.400,106.120
-0.462,0.220,-0.180,45.500,-23.660,104.160
-0.136,0.245,-0.186,46.550,-23.380,81.550
-0.455,0.389,-0.129,41.300,-33.670,62.090
-0.339,0.366,-0.191,100.730,-17.850,58.870
-0.709,0.424,-0.246,53.970,-16.100,75.600
-0.591,0.376,-0.294,46.900,-20.160,77.840
-0.611,0.432,-0.315,49.840,-18.900,77.280
-0.586,0.484,-0.320,56.140,-13.020,74.340
-0.595,0.462,-0.313,58.590,-9.520,69.090
-0.588,0.443,-0.320,49.420,-12.040,67.550
-0.558,0.436,-0.340,37.590,-16.380,66.080
-0.557,0.448,-0.366,29.050,-20.370,59.710
-0.587,0.450,-0.419,22.820,-20.440,52.080
-0.616,0.479,-0.440,20.090,-22.330,46.760
-0.659,0.505,-0.480,21.000,-25.270,43.400
-0.688,0.514,-0.523,27.160,-29.400,42.140
-0.719,0.498,-0.569,33.600,-29.680,41.020
-0.755,0.475,-0.597,37.800,-26.880,39.410
-0.767,0.466,-0.590,38.290,-22.260,35.770
-0.767,0.438,-0.592,37.800,-21.910,35.280
-0.809,0.418,-0.614,35.560,-20.860,36.960
-0.863,0.377,-0.611,29.470,-24.850,35.000
-0.805,0.355,-0.630,27.650,-17.080,32.270
-0.878,0.447,-0.475,22.470,-18.410,34.090
-0.805,0.471,-0.772,38.710,-13.930,33.880
-0.874,0.389,-0.639,26.180,-11.620,25.970
-0.998,0.454,-0.641,23.940,-11.130,25.270
-0.890,0.447,-0.661,25.200,-14.700,17.920
-0.843,0.363,-0.662,8.400,-14.280,8.050
-0.927,0.415,-0.591,2.310,-13.580,4.620
-0.957,0.443,-0.553,-1.190,-12.600,1.050
-0.982,0.427,-0.541,-2.940,-10.150,-0.490
-0.977,0.402,-0.506,-6.300,-8.540,-4.550
-0.966,0.401,-0.489,-9.520,-6.440,-7.490
-0.984,0.394,-0.494,-10.220,-4.970,-7.770
-0.957,0.366,-0.508,-11.760,-4.690,-7.980
-0.941,0.339,-0.519,-14.840,-3.220,-8.540
-0.945,0.297,-0.530,-19.250,-1.120,-9.730
-0.920,0.268,-0.539,-23.100,-1.260,-9.730
-0.893,0.257,-0.551,-25.830,-0.630,-10.150
-0.897,0.251,-0.553,-27.090,1.190,-10.850

0.752,-0.812,-0.956,10.640,110.880,-125.440
0.749,-0.782,-0.962,3.290,102.760,-121.730
0.750,-0.784,-0.964,-1.890,95.900,-117.390
0.742,-0.780,-0.949,-3.080,87.010,-112.630
0.724,-0.813,-0.958,-3.780,82.320,-107.170
0.696,-0.825,-0.965,-5.110,79.100,-100.800
0.688,-0.828,-0.982,-6.510,75.740,-93.870
0.675,-0.799,-1.005,-6.440,72.660,-84.490
0.644,-0.785,-1.027,-5.950,69.580,-77.700
0.630,-0.773,-1.041,-5.460,66.430,-71.680
0.619,-0.762,-1.040,-5.180,62.930,-66.850
0.627,-0.786,-1.041,-5.600,56.770,-62.580
0.618,-0.795,-1.042,-6.300,52.290,-58.870
0.602,-0.804,-1.052,-7.140,47.670,-55.370
0.597,-0.810,-1.055,-7.420,42.770,-51.940
0.595,-0.806,-1.068,-6.370,38.780,-46.410
0.582,-0.797,-1.084,-4.970,35.840,-42.140
0.574,-0.789,-1.092,-2.590,32.830,-37.170
0.568,-0.784,-1.094,-0.070,30.170,-32.130
0.566,-0.787,-1.104,1.120,26.530,-27.580
0.578,-0.784,-1.107,2.030,23.590,-23.170
0.588,-0.771,-1.115,4.270,20.370,-17.710
0.595,-0.768,-1.127,5.950,15.960,-11.550
0.620,-0.778,-1.124,6.790,11.340,-5.530
0.654,-0.788,-1.120,7.140,6.650,1.050
0.676,-0.800,-1.124,7.140,0.980,7.770
0.693,-0.806,-1.129,8.610,-5.180,14.210
0.712,-0.796,-1.124,11.340,-10.500,21.840
0.732,-0.804,-1.124,13.580,-15.680,29.540
0.746,-0.806,-1.104,15.680,-22.050,37.590
0.764,-0.843,-1.083,14.840,-30.380,45.010
0.785,-0.890,-1.085,10.850,-37.030,52.500
0.811,-0.907,-1.112,6.720,-43.190,59.920
0.838,-0.904,-1.136,4.550,-48.930,68.110
0.863,-0.920,-1.165,2.310,-54.250,76.370
0.886,-0.946,-1.185,-0.700,-61.110,90.160
0.909,-0.970,-1.205,-6.090,-68.390,100.730
0.934,-0.982,-1.195,-10.010,-76.790,110.390
0.957,-1.044,-1.197,-18.130,-85.750,121.520
0.983,-1.081,-1.194,-27.440,-96.250,131.040
1.005,-1.078,-1.167,-34.650,-112.630,142.100
0.970,-1.071,-1.166,-41.020,-124.390,154.280
0.938,-1.014,-1.170,-46.200,-134.820,165.410
0.899,-0.952,-1.167,-48.860,-144.060,178.500
0.859,-0.890,-1.148,-49.700,-154.420,188.650
0.813,-0.864,-1.137,-51.870,-161.560,195.860
0.773,-0.845,-1.111,-54.950,-168.350,201.740
0.628,-0.836,-1.080,-59.850,-176.400,206.080
0.716,-0.793,-1.045,-64.820,-181.440,208.530
0.679,-0.764,-1.008,-68.320,-186.340,210.420
0.647,-0.723,-0.962,-67.900,-190.400,210.770
0.603,-0.702,-0.917,-65.170,-193.760,213.850
0.569,-0.684,-0.878,-61.740,-194.810,216.650
0.563,-0.658,-0.842,-60.340,-195.440,218.400
0.526,-0.579,-0.798,-56.700,-196.420,222.530
0.476,-0.550,-0.786,-56.420,-195.860,224.070
0.439,-0.538,-0.796,-56.350,-196.490,226.310
0.414,-0.448,-0.785,-54.670,-197.890,227.990
0.386,-0.385,-0.763,-50.190,-199.080,228.410
0.342,-0.355,-0.718,-45.920,-199.010,226.310
0.282,-0.332,-0.666,-42.840,-198.030,224.840
0.242,-0.342,-0.612,-43.750,-196.070,223.020
0.220,-0.366,-0.578,-45.570,-194.390,221.690
0.216,-0.354,-0.565,-47.530,-192.010,221.270
0.216,-0.337,-0.599,-50.260,-189.420,220.290
0.199,-0.289,-0.601,-51.030,-188.020,218.820
0.191,-0.246,-0.614,-50.400,-186.340,216.370
0.157,-0.195,-0.607,-49.910,-184.520,214.060
0.118,-0.201,-0.617,-53.480,-182.910,209.790
0.107,-0.170,-0.597,-52.080,-182.630,206.290
0.103,-0.088,-0.532,-48.510,-183.330,202.580
0.039,-0.087,-0.499,-47.600,-182.140,198.940
-0.017,-0.079,-0.473,-46.480,-180.670,196.560
-0.038,-0.049,-0.475,-41.580,-177.380,194.250
-0.048,-0.048,-0.514,-43.750,-172.760,191.380
-0.024,-0.133,-0.599,-53.480,-166.390,185.360
0.051,-0.067,-0.609,-53.830,-161.630,179.970
-0.011,-0.005,-0.613,-56.770,-162.540,173.110
0.100,-0.065,-0.609,-62.300,-161.000,167.300
-0.046,-0.060,-0.551,-69.580,-165.760,168.980
0.030,-0.016,-0.490,-66.570,-170.520,159.600
-0.030,0.153,-0.423,-59.430,-173.530,159.600
-0.140,0.123,-0.442,-58.170,-170.240,161.700
-0.195,0.151,-0.433,-53.410,-164.570,166.460
-0.216,0.263,-0.353,-42.420,-159.740,167.440
-0.240,0.353,-0.311,-27.860,-153.790,163.380
-0.391,0.399,-0.286,-17.290,-143.150,158.620
-0.433,0.338,-0.246,-8.050,-137.620,154.770
-0.477,0.341,-0.194,-0.490,-132.090,150.220
-0.450,0.335,-0.170,2.380,-125.300,146.650
-0.463,0.297,-0.186,2.450,-118.860,137.620
-0.432,0.295,-0.212,0.420,-110.250,131.600
-0.529,0.301,-0.235,5.460,-111.510,127.610
-0.526,0.372,-0.203,10.290,-114.100,125.720
-0.540,0.397,-0.216,12.390,-110.390,121.310
-0.555,0.424,-0.222,16.590,-107.660,117.110
-0.573,0.459,-0.193,20.930,-103.250,112.630
-0.670,0.492,-0.168,21.770,-94.780,106.470
-0.728,0.483,-0.178,19.250,-83.020,99.820
-0.736,0.506,-0.164,21.630,-73.290,96.040
-0.714,0.577,-0.150,26.460,-64.050,90.930
-0.746,0.618,-0.138,30.450,-57.470,88.550
-0.781,0.600,-0.151,26.250,-54.460,85.050
-0.810,0.618,-0.210,18.690,-50.120,77.840
-0.829,0.673,-0.219,15.890,-41.160,66.640
-0.843,0.696,-0.208,13.860,-37.590,57.540
-0.848,0.681,-0.226,12.880,-35.420,51.030
-0.866,0.692,-0.261,11.760,-31.640,45.710
-0.874,0.712,-0.260,9.310,-28.770,40.880
-0.871,0.684,-0.233,2.240,-24.710,35.210
-0.891,0.780,-0.200,6.930,-29.540,34.930
-0.789,0.650,-0.415,-3.080,-17.920,17.920
-0.901,0.753,-0.235,-8.750,-13.790,11.690
-0.942,0.809,-0.234,-10.710,-9.170,9.590
-0.823,0.707,-0.312,-17.780,-4.550,-1.400
-0.897,0.746,-0.242,-18.760,0.140,-7.700
-0.962,0.634,-0.232,-14.070,2.310,-11.480
-0.936,0.652,-0.280,-17.500,2.450,-14.700
-0.918,0.601,-0.336,-22.400,2.450,-18.130

0.881,-0.776,-0.753,42.490,101.080,-136.080
0.885,-0.798,-0.777,44.240,97.440,-132.020
0.932,-0.820,-0.801,45.850,92.960,-126.910
0.963,-0.833,-0.798,47.110,88.200,-121.310
0.962,-0.855,-0.787,46.270,83.020,-114.730
0.963,-0.870,-0.766,43.190,76.720,-107.240
0.959,-0.883,-0.752,37.940,70.350,-100.100
0.951,-0.879,-0.744,31.850,64.610,-90.020
0.943,-0.865,-0.742,31.220,59.080,-82.600
0.943,-0.858,-0.754,31.080,54.040,-74.690
0.931,-0.878,-0.773,28.910,49.210,-66.640
0.936,-0.902,-0.794,26.390,44.170,-58.380
0.948,-0.913,-0.817,23.170,38.990,-49.770
0.975,-0.950,-0.843,20.440,30.520,-40.810
0.972,-0.965,-0.846,17.360,23.730,-30.940
0.966,-0.989,-0.860,14.910,16.940,-21.000
0.961,-0.980,-0.876,14.630,10.990,-10.360
0.954,-0.987,-0.888,15.120,5.320,5.320
0.956,-0.993,-0.896,15.120,-0.420,17.150
0.953,-0.998,-0.900,14.490,-6.510,28.350
0.951,-1.017,-0.895,11.270,-13.160,38.570
0.971,-1.054,-0.892,5.670,-20.720,48.230
0.985,-1.051,-0.892,1.050,-28.700,58.030
0.992,-1.031,-0.909,-1.330,-38.360,68.320
0.986,-1.012,-0.913,-3.710,-44.870,78.750
0.989,-1.025,-0.903,-8.890,-51.800,88.340
1.017,-1.044,-0.890,-14.560,-59.710,98.000
1.051,-1.053,-0.885,-22.400,-67.760,111.790
1.087,-1.049,-0.905,-25.550,-75.320,122.920
1.101,-1.024,-0.914,-25.690,-82.180,135.030
1.112,-1.005,-0.916,-24.710,-90.510,147.070
1.124,-1.005,-0.903,-25.340,-96.530,158.340
1.148,-1.010,-0.884,-28.420,-103.530,168.910
1.163,-1.016,-0.865,-31.920,-111.020,178.640
1.166,-1.014,-0.840,-53.340,-118.790,190.750
1.160,-0.999,-0.822,-43.050,-126.350,198.590
1.137,-0.960,-0.800,-49.630,-134.260,206.010
1.113,-0.948,-0.792,-58.870,-142.240,211.610
1.098,-0.913,-0.784,-67.410,-151.060,217.140
1.068,-0.879,-0.772,-75.460,-162.960,221.970
1.028,-0.868,-0.762,-81.760,-170.870,226.940
0.996,-0.840,-0.750,-86.240,-177.450,231.070
0.962,-0.832,-0.738,-88.970,-182.070,235.200
0.933,-0.824,-0.712,-92.540,-186.270,239.960
0.895,-0.789,-0.673,-93.940,-189.770,243.390
0.861,-0.782,-0.645,-94.570,-192.360,245.210
0.823,-0.804,-0.611,-102.200,-193.970,246.050
0.807,-0.734,-0.523,-104.790,-200.480,250.250
0.743,-0.663,-0.488,-107.380,-204.680,254.730
0.639,-0.619,-0.526,-108.150,-205.380,260.960
0.564,-0.559,-0.535,-105.560,-205.310,265.720
0.500,-0.479,-0.548,-98.000,-203.490,270.550
0.425,-0.406,-0.554,-93.100,-201.180,272.440
0.359,-0.401,-0.544,-91.700,-199.010,272.860
0.307,-0.407,-0.508,-93.450,-197.960,271.950
0.273,-0.416,-0.474,-92.680,-197.960,269.710
0.220,-0.391,-0.421,-91.070,-196.980,267.470
0.163,-0.354,-0.423,-88.970,-195.650,266.770
0.133,-0.337,-0.432,-88.060,-194.530,264.390
0.071,-0.262,-0.442,-80.360,-192.010,262.150
0.023,-0.150,-0.449,-64.540,-188.440,260.330
-0.028,-0.122,-0.473,-54.390,-181.300,258.370
-0.090,-0.083,-0.451,-49.840,-177.520,255.220
-0.146,-0.073,-0.439,-45.010,-172.900,246.960
-0.187,-0.050,-0.429,-36.540,-167.650,241.780
-0.219,-0.009,-0.418,-28.490,-163.380,236.950
-0.249,0.028,-0.390,-18.130,-160.300,233.240
-0.323,0.045,-0.349,-16.240,-157.990,232.750
-0.325,0.004,-0.364,-14.420,-149.800,224.280
-0.365,0.061,-0.351,-13.860,-145.740,221.550
-0.398,0.061,-0.383,-16.030,-136.220,211.470
-0.417,0.074,-0.400,-13.580,-133.490,202.440
-0.420,0.111,-0.434,-5.670,-126.840,195.720
-0.441,0.105,-0.438,-10.430,-120.820,185.080
-0.429,0.082,-0.401,-15.820,-116.830,182.420
-0.517,0.016,-0.397,-17.220,-102.620,167.020
-0.479,0.102,-0.378,-15.050,-91.980,160.090
-0.462,0.141,-0.339,-10.570,-91.630,164.150
-0.429,0.075,-0.349,-10.920,-86.590,167.790
-0.485,0.082,-0.358,-21.840,-82.390,158.550
-0.483,0.111,-0.425,-28.700,-74.060,148.960
-0.529,0.202,-0.458,-28.980,-66.080,143.360
-0.485,0.253,-0.456,-29.470,-64.190,139.230
-0.516,0.223,-0.484,-32.480,-60.550,130.970
-0.462,0.229,-0.469,-34.230,-55.860,124.600
-0.548,0.314,-0.440,-19.950,-56.770,127.260
-0.560,0.334,-0.405,-5.600,-55.860,132.160
-0.548,0.327,-0.418,2.310,-52.710,134.050
-0.545,0.346,-0.417,11.550,-46.900,131.740
-0.652,0.378,-0.401,15.540,-34.580,127.750
-0.609,0.399,-0.372,20.230,-32.340,128.030
-0.545,0.394,-0.425,18.970,-29.050,116.340
-0.589,0.453,-0.468,20.020,-20.720,113.680
-0.692,0.475,-0.469,24.570,-27.720,119.770
-0.580,0.424,-0.495,19.740,-33.810,114.870
-0.505,0.444,-0.497,14.700,-38.430,109.410
-0.622,0.454,-0.497,7.070,-36.190,97.230
-0.639,0.462,-0.489,4.970,-37.310,93.520
-0.663,0.476,-0.498,-0.070,-35.770,89.250
-0.651,0.556,-0.486,-1.190,-35.210,80.920
-0.740,0.617,-0.492,0.560,-29.820,75.950
-0.776,0.652,-0.449,2.940,-27.650,69.020
-0.719,0.659,-0.446,3.360,-24.080,60.970
-0.744,0.678,-0.454,4.830,-18.690,53.130
-0.795,0.691,-0.435,6.230,-13.160,46.760
-0.781,0.667,-0.435,4.760,-11.340,39.900
-0.758,0.685,-0.390,2.870,-11.480,32.550
-0.763,0.733,-0.397,6.160,-11.340,24.780
-0.709,0.664,-0.430,-15.750,-8.610,7.280
-0.746,0.662,-0.353,-14.560,-10.080,0.700
-0.875,0.742,-0.335,-14.000,-9.380,-4.130
-0.816,0.708,-0.356,-12.810,-8.540,-10.150
-0.794,0.653,-0.400,-13.650,-7.560,-15.120
-0.815,0.578,-0.447,-16.030,-8.120,-19.390
-0.785,0.524,-0.490,-20.790,-9.660,-23.590
-0.761,0.495,-0.495,-24.710,-11.340,-24.850
-0.773,0.427,-0.513,-27.860,-12.110,-24.150
-0.784,0.401,-0.539,-29.610,-8.330,-25.970
-0.776,0.407,-0.545,-26.670,-1.960,-26.950

0.932,-0.943,-0.658,43.540,87.990,-168.910
0.976,-0.967,-0.671,41.580,84.910,-162.470
1.012,-0.954,-0.695,41.720,81.900,-152.670
1.012,-0.984,-0.720,38.290,80.010,-142.730
1.035,-1.039,-0.736,36.260,76.160,-132.510
1.049,-1.049,-0.743,37.660,71.120,-119.560
1.060,-1.090,-0.749,39.480,66.080,-110.110
1.054,-1.135,-0.752,40.530,61.250,-100.240
1.039,-1.156,-0.751,41.090,56.070,-91.000
1.026,-1.178,-0.747,41.930,48.930,-79.450
0.985,-1.199,-0.747,43.120,39.270,-66.500
0.971,-1.207,-0.746,44.380,30.310,-56.000
0.954,-1.206,-0.767,47.320,24.570,-44.450
0.939,-1.215,-0.789,50.680,18.480,-30.590
0.921,-1.226,-0.788,51.730,14.210,-17.080
0.911,-1.285,-0.791,49.490,10.290,-3.920
0.911,-1.304,-0.793,47.250,7.070,12.880
0.904,-1.320,-0.782,41.440,2.450,25.760
0.900,-1.356,-0.780,34.790,-2.870,39.060
0.895,-1.353,-0.770,28.140,-7.770,50.750
0.901,-1.373,-0.761,20.300,-12.460,62.930
0.929,-1.391,-0.761,11.830,-17.010,74.970
0.953,-1.377,-0.759,5.390,-21.840,87.570
0.977,-1.382,-0.749,-1.470,-26.110,100.170
1.123,-1.378,-0.735,-8.820,-32.620,112.910
1.026,-1.380,-0.710,-16.240,-37.660,125.440
1.057,-1.389,-0.698,-25.060,-43.260,138.390
1.081,-1.363,-0.691,-33.390,-49.700,155.540
1.096,-1.340,-0.685,-42.770,-56.210,168.630
1.113,-1.312,-0.679,-49.560,-62.510,181.020
1.123,-1.290,-0.667,-55.440,-68.600,192.290
1.132,-1.277,-0.652,-60.830,-74.200,202.790
1.128,-1.259,-0.621,-67.130,-80.640,212.030
1.129,-1.241,-0.590,-75.320,-86.240,220.360
1.114,-1.229,-0.590,-87.500,-89.810,224.350
1.100,-1.202,-0.577,-97.440,-95.200,227.290
1.059,-1.138,-0.561,-104.510,-104.020,237.720
1.049,-1.138,-0.563,-118.440,-109.830,236.390
1.045,-1.076,-0.553,-124.390,-116.830,242.760
1.006,-1.034,-0.538,-130.550,-120.820,244.440
0.927,-0.981,-0.519,-128.940,-127.890,250.740
0.888,-0.961,-0.518,-130.060,-131.460,255.220
0.853,-0.927,-0.517,-132.160,-134.190,259.000
0.827,-0.886,-0.508,-135.660,-136.220,262.080
0.797,-0.845,-0.510,-142.030,-141.260,266.630
0.785,-0.787,-0.483,-144.900,-151.760,273.560
0.745,-0.741,-0.472,-148.120,-159.460,273.840
0.686,-0.686,-0.449,-148.680,-166.880,272.650
0.617,-0.651,-0.442,-149.520,-170.450,272.300
0.579,-0.617,-0.427,-150.640,-174.300,272.370
0.524,-0.557,-0.440,-150.360,-177.030,271.040
0.466,-0.523,-0.450,-150.990,-178.430,269.220
0.405,-0.489,-0.475,-152.320,-178.080,267.400
0.358,-0.458,-0.487,-149.520,-177.800,264.950
0.324,-0.378,-0.471,-144.340,-177.310,262.220
0.276,-0.347,-0.457,-140.420,-177.380,258.090
0.221,-0.309,-0.447,-137.970,-178.500,255.080
0.194,-0.351,-0.472,-140.630,-179.060,250.110
0.187,-0.314,-0.455,-140.840,-180.670,245.980
0.158,-0.225,-0.435,-143.920,-183.400,236.740
0.120,-0.207,-0.432,-143.010,-185.850,231.350
0.075,-0.153,-0.438,-136.780,-185.710,225.890
0.048,-0.061,-0.415,-127.190,-184.660,221.200
-0.001,-0.033,-0.417,-118.230,-181.720,215.740
-0.065,-0.004,-0.409,-107.730,-179.340,211.610
-0.101,0.037,-0.411,-95.270,-175.140,207.760
-0.147,0.074,-0.394,-88.550,-170.310,203.280
-0.172,0.028,-0.422,-88.760,-164.990,198.030
-0.184,0.054,-0.402,-81.620,-159.530,193.200
-0.245,0.133,-0.404,-68.880,-154.140,190.610
-0.230,0.137,-0.407,-65.590,-137.970,178.570
-0.274,0.183,-0.368,-63.000,-131.110,175.000
-0.315,0.163,-0.376,-58.730,-124.670,172.480
-0.383,0.224,-0.400,-49.840,-103.320,173.320
-0.378,0.242,-0.353,-43.330,-102.270,171.150
-0.219,0.225,-0.365,-37.310,-93.800,160.230
-0.299,0.230,-0.331,-34.510,-100.450,151.130
-0.348,0.207,-0.403,-45.150,-88.410,137.130
-0.392,0.228,-0.397,-50.400,-75.460,126.910
-0.406,0.276,-0.372,-48.090,-69.510,119.700
-0.419,0.333,-0.344,-44.240,-62.650,113.330
-0.478,0.342,-0.379,-38.920,-51.170,104.300
-0.447,0.376,-0.333,-27.510,-54.670,103.740
-0.318,0.442,-0.355,-14.840,-42.000,90.230
-0.605,0.486,-0.282,-4.480,-47.390,95.760
-0.583,0.397,-0.346,-6.860,-28.630,88.550
-0.609,0.427,-0.336,-1.750,-19.110,80.570
-0.557,0.469,-0.322,4.270,-16.870,81.130
-0.600,0.440,-0.346,8.960,-21.000,87.570
-0.582,0.384,-0.386,5.390,-18.550,85.820
-0.539,0.393,-0.391,-0.420,-19.880,83.440
-0.514,0.431,-0.405,-6.020,-24.710,79.520
-0.620,0.612,-0.432,-6.370,-24.430,73.850
-0.676,0.544,-0.453,-4.480,-19.670,67.970
-0.665,0.586,-0.459,-0.700,-18.410,62.370
-0.665,0.583,-0.477,2.450,-18.620,57.470
-0.723,0.565,-0.490,1.890,-16.100,52.850
-0.728,0.529,-0.502,-0.280,-16.450,48.860
-0.722,0.556,-0.514,-0.560,-16.240,45.500
-0.758,0.584,-0.517,0.770,-15.330,42.070
-0.784,0.578,-0.523,-0.700,-15.120,19.460
-0.802,0.577,-0.538,-4.200,-12.810,29.190
-0.826,0.594,-0.560,-8.330,-9.520,23.590
-0.828,0.616,-0.565,-11.200,-6.440,18.060
-0.825,0.634,-0.566,-12.040,-5.320,12.810
-0.803,0.633,-0.583,-13.020,-3.430,4.690
-0.848,0.655,-0.548,-15.610,-1.400,-3.430
-0.896,0.683,-0.534,-16.240,-1.120,-8.400
-0.880,0.679,-0.522,-16.730,-2.870,-15.540
-0.911,0.723,-0.503,-12.180,-5.250,-19.250
-0.918,0.719,-0.500,-8.610,-8.750,-21.000
-0.918,0.703,-0.521,-6.930,-9.730,-28.280
-0.895,0.703,-0.533,-6.300,-7.700,-35.980
-0.877,0.699,-0.533,-6.160,-6.650,-42.980
-0.874,0.697,-0.538,-7.560,0.980,-53.970
-0.869,0.704,-0.510,-9.590,4.620,-66.780
-0.858,0.698,-0.488,-11.060,5.950,-76.790
-0.848,0.706,-0.460,-14.560,10.080,-86.520
-0.863,0.708,-0.442,-16.730,13.370,-96.180

0.855,-0.822,-0.849,10.640,92.820,-150.710
0.880,-0.835,-0.879,12.670,87.850,-144.200
0.916,-0.860,-0.890,17.570,84.000,-136.920
0.936,-0.891,-0.891,25.130,80.780,-128.520
0.953,-0.938,-0.898,34.230,77.700,-119.630
0.967,-0.996,-0.915,41.020,73.710,-110.040
0.989,-1.071,-0.935,42.700,69.230,-100.030
1.027,-1.130,-0.956,42.000,67.550,-96.390
1.033,-1.152,-0.973,41.790,56.630,-81.270
1.012,-1.190,-0.999,43.540,48.930,-67.270
0.967,-1.201,-1.017,43.540,40.040,-49.140
0.974,-1.228,-1.032,43.960,34.580,-18.060
0.997,-1.262,-1.027,41.510,30.450,-18.830
0.942,-1.310,-1.007,33.880,15.960,-0.770
0.954,-1.362,-1.008,23.310,6.720,12.250
0.980,-1.379,-1.017,13.090,-5.110,27.230
0.978,-1.353,-1.035,4.620,-14.910,42.980
0.951,-1.326,-1.042,-2.450,-23.310,58.380
0.931,-1.313,-1.050,-8.050,-33.180,72.870
0.943,-1.323,-1.049,-14.000,-40.810,86.100
0.973,-1.342,-1.042,-20.300,-48.790,98.630
0.998,-1.328,-1.036,-26.040,-57.190,111.440
1.017,-1.322,-1.031,-32.200,-65.660,141.400
1.020,-1.285,-1.032,-36.470,-73.780,139.580
1.024,-1.245,-1.025,-38.640,-81.900,150.430
1.024,-1.219,-1.001,-41.440,-90.090,160.370
1.032,-1.216,-0.978,-45.430,-98.630,169.750
1.054,-1.207,-0.959,-49.980,-107.310,178.570
1.072,-1.161,-0.937,-54.390,-119.490,187.320
1.057,-1.120,-0.915,-58.520,-127.400,195.510
1.035,-1.087,-0.895,-62.790,-134.190,203.210
1.027,-1.064,-0.872,-66.920,-141.050,209.930
1.021,-1.017,-0.851,-69.020,-147.070,216.580
1.005,-0.971,-0.839,-70.630,-151.480,225.330
0.974,-0.904,-0.810,-69.650,-155.330,231.140
0.941,-0.897,-0.780,-71.540,-159.320,236.040
0.921,-0.895,-0.741,-75.390,-163.380,240.240
0.898,-0.882,-0.699,-82.880,-166.740,243.670
0.893,-0.895,-0.673,-88.130,-170.870,245.560
0.872,-0.813,-0.627,-88.620,-172.480,250.180
0.844,-0.783,-0.600,-89.810,-172.900,253.330
0.822,-0.784,-0.577,-94.080,-174.930,256.200
0.795,-0.721,-0.552,-95.130,-177.520,259.700
0.751,-0.616,-0.517,-93.590,-180.460,266.140
0.688,-0.589,-0.508,-94.990,-182.630,270.620
0.626,-0.554,-0.475,-96.530,-185.710,274.470
0.564,-0.505,-0.432,-98.000,-188.160,276.920
0.482,-0.466,-0.431,-97.790,-187.810,278.880
0.438,-0.442,-0.424,-96.460,-186.340,279.510
0.395,-0.394,-0.395,-94.220,-185.990,280.560
0.343,-0.369,-0.392,-92.260,-183.960,280.700
0.299,-0.353,-0.397,-90.300,-182.210,280.560
0.256,-0.308,-0.376,-87.570,-180.390,278.320
0.217,-0.253,-0.363,-82.040,-178.500,276.570
0.152,-0.193,-0.330,-74.550,-177.380,278.880
0.074,-0.183,-0.314,-67.900,-173.740,274.540
0.058,-0.154,-0.286,-64.820,-166.460,269.500
0.032,-0.149,-0.294,-69.090,-161.770,262.500
0.001,-0.135,-0.318,-67.760,-156.520,255.430
-0.007,-0.094,-0.352,-63.560,-151.830,253.050
-0.014,-0.023,-0.371,-55.020,-144.410,246.960
-0.041,0.042,-0.365,-50.540,-137.620,241.780
-0.070,0.061,-0.362,-44.590,-132.370,238.280
-0.140,0.095,-0.365,-39.340,-121.450,229.600
-0.199,0.118,-0.312,-37.380,-114.660,222.950
-0.260,0.144,-0.286,-35.350,-109.970,224.490
-0.252,0.121,-0.371,-37.450,-97.440,212.730
-0.280,0.187,-0.382,-33.110,-89.600,205.800
-0.307,0.214,-0.409,-27.650,-81.830,196.700
-0.283,0.226,-0.439,-25.480,-78.750,194.950
-0.236,0.247,-0.436,-22.890,-79.590,196.350
-0.205,0.246,-0.411,-23.240,-80.430,191.660
-0.285,0.274,-0.419,-26.250,-74.900,180.740
-0.366,0.332,-0.412,-22.400,-68.040,171.640
-0.411,0.370,-0.404,-18.690,-60.690,165.970
-0.462,0.392,-0.420,-10.990,-53.480,158.270
-0.541,0.445,-0.425,-3.290,-45.500,154.560
-0.512,0.462,-0.436,4.900,-41.510,152.180
-0.486,0.488,-0.456,5.320,-35.910,145.600
-0.476,0.473,-0.495,2.450,-31.080,136.710
-0.459,0.500,-0.510,1.610,-29.960,127.820
-0.520,0.580,-0.520,5.530,-24.220,116.130
-0.587,0.601,-0.513,12.390,-20.440,107.660
-0.557,0.593,-0.508,13.790,-16.310,100.380
-0.610,0.599,-0.525,9.240,-12.180,94.010
-0.628,0.617,-0.554,8.750,-14.070,89.530
-0.597,0.603,-0.624,3.640,-14.070,79.310
-0.594,0.613,-0.643,-2.800,-15.890,67.900
-0.585,0.667,-0.620,-5.320,-17.150,53.130
-0.656,0.748,-0.593,-3.780,-15.820,43.610
-0.704,0.738,-0.576,-4.760,-12.390,33.180
-0.738,0.752,-0.558,-4.410,-10.290,25.760
-0.769,0.792,-0.557,-1.120,-8.680,19.320
-0.817,0.781,-0.572,2.940,-7.560,14.140
-0.812,0.772,-0.579,3.640,-5.740,6.440
-0.794,0.752,-0.593,2.730,-4.970,-1.470
-0.812,0.746,-0.571,1.470,-6.790,-7.700
-0.762,0.726,-0.620,-0.140,-6.510,-15.680
-0.771,0.688,-0.580,-10.220,-8.400,-27.090
-0.847,0.701,-0.550,-13.020,-10.570,-31.360
-0.839,0.697,-0.547,-14.910,-12.250,-35.000
-0.835,0.678,-0.548,-16.100,-13.090,-38.220
-0.846,0.678,-0.543,-14.910,-13.090,-41.580
-0.865,0.729,-0.551,-7.770,-10.150,-44.450
-0.874,0.746,-0.574,1.190,-7.280,-47.880
-0.858,0.725,-0.604,5.180,-4.480,-56.630
-0.830,0.703,-0.611,3.920,-3.290,-64.400
-0.826,0.710,-0.604,3.150,-2.800,-72.310
-0.828,0.719,-0.591,4.410,-2.590,-81.200
-0.810,0.729,-0.562,4.340,0.210,-89.810
-0.825,0.719,-0.556,7.210,3.010,-99.750
-0.801,0.696,-0.513,6.720,8.120,-108.990
-0.775,0.645,-0.492,5.670,10.780,-118.580
-0.736,0.599,-0.492,1.120,13.020,-128.030
-0.697,0.578,-0.506,-1.120,17.500,-137.340
-0.646,0.565,-0.501,0.630,21.140,-145.390
-0.607,0.522,-0.501,2.800,24.500,-152.320
-0.559,0.462,-0.502,7.560,28.630,-161.140
-0.535,0.433,-0.488,14.350,33.530,-166.460

0.845,-1.291,-0.379,78.190,37.940,-137.690
0.847,-1.306,-0.368,72.310,32.900,-127.890
0.849,-1.324,-0.357,68.460,29.680,-119.910
0.851,-1.335,-0.340,67.760,27.370,-110.460
0.841,-1.354,-0.340,67.970,27.230,-99.680
0.854,-1.385,-0.347,67.270,27.440,-89.180
0.860,-1.417,-0.366,63.560,27.300,-79.240
0.883,-1.458,-0.386,55.510,24.010,-72.030
0.942,-1.495,-0.398,47.040,20.090,-61.320
0.957,-1.563,-0.391,34.650,16.800,-49.840
0.949,-1.607,-0.385,22.540,12.740,-36.540
0.935,-1.623,-0.358,11.410,10.290,-23.030
0.934,-1.674,-0.365,-1.820,7.420,-9.590
0.925,-1.671,-0.374,-13.230,4.690,4.830
0.917,-1.669,-0.384,-26.110,2.940,25.620
0.916,-1.694,-0.404,-36.610,-0.560,41.160
0.931,-1.676,-0.418,-47.600,-5.180,56.140
0.931,-1.664,-0.429,-58.450,-9.380,70.560
0.935,-1.652,-0.439,-68.320,-13.790,84.770
0.934,-1.641,-0.433,-77.140,-19.390,98.560
0.966,-1.658,-0.422,-86.870,-24.010,112.140
1.000,-1.659,-0.416,-96.460,-28.630,125.720
1.030,-1.649,-0.418,-106.190,-33.320,138.110
1.040,-1.629,-0.433,-115.500,-38.010,154.910
1.056,-1.574,-0.439,-127.680,-43.540,166.390
1.056,-1.518,-0.443,-136.220,-50.050,177.450
1.036,-1.478,-0.442,-145.180,-56.840,187.950
1.031,-1.429,-0.447,-153.230,-64.820,198.380
1.014,-1.355,-0.451,-158.270,-74.620,208.390
1.003,-1.312,-0.452,-163.520,-81.270,217.420
0.992,-1.287,-0.448,-169.470,-88.200,225.050
0.996,-1.264,-0.443,-173.880,-94.640,232.750
0.994,-1.211,-0.427,-176.120,-101.080,239.680
0.975,-1.161,-0.420,-197.050,-107.450,246.120
0.953,-1.121,-0.418,-184.940,-113.680,249.480
0.929,-1.073,-0.414,-189.070,-119.560,252.280
0.902,-1.008,-0.425,-191.450,-125.370,256.760
0.855,-0.909,-0.436,-192.080,-131.320,260.470
0.809,-0.847,-0.461,-188.720,-135.030,264.460
0.633,-0.786,-0.445,-188.160,-140.560,267.820
0.711,-0.777,-0.462,-192.080,-145.250,267.470
0.680,-0.716,-0.455,-194.740,-150.640,267.260
0.661,-0.704,-0.443,-197.470,-157.010,267.960
0.639,-0.651,-0.435,-197.050,-164.500,269.430
0.585,-0.572,-0.460,-192.500,-168.980,270.620
0.510,-0.481,-0.479,-184.940,-170.450,270.760
0.440,-0.422,-0.482,-176.260,-169.610,269.850
0.369,-0.386,-0.468,-166.390,-167.510,269.150
0.335,-0.394,-0.479,-157.920,-163.940,266.910
0.294,-0.351,-0.445,-146.090,-159.740,264.530
0.253,-0.264,-0.392,-134.750,-157.290,261.240
0.192,-0.259,-0.352,-131.810,-155.820,255.850
0.148,-0.298,-0.362,-134.680,-154.840,249.060
0.124,-0.236,-0.410,-126.560,-152.110,245.980
0.109,-0.131,-0.446,-116.200,-149.030,242.970
0.102,-0.127,-0.493,-106.260,-145.810,238.630
0.092,-0.092,-0.497,-97.930,-144.410,234.150
0.046,-0.030,-0.474,-87.920,-142.520,229.250
-0.031,0.022,-0.445,-77.910,-138.040,224.210
-0.084,0.049,-0.409,-72.450,-134.260,218.400
-0.138,0.051,-0.379,-67.690,-130.060,212.660
-0.160,0.063,-0.407,-66.570,-126.140,208.390
-0.134,0.051,-0.433,-66.500,-121.100,199.640
-0.215,0.122,-0.440,-60.340,-115.850,192.010
-0.325,0.122,-0.465,-55.860,-90.020,173.040
-0.277,0.161,-0.423,-54.250,-78.470,165.830
-0.289,0.158,-0.398,-45.920,-77.000,169.820
-0.184,0.130,-0.385,-39.900,-83.650,173.880
-0.197,0.132,-0.374,-40.040,-77.840,162.890
-0.278,0.197,-0.383,-44.590,-69.300,148.120
-0.320,0.230,-0.421,-51.100,-63.980,135.380
-0.346,0.224,-0.448,-53.410,-60.480,124.460
-0.369,0.324,-0.443,-45.850,-58.870,118.440
-0.442,0.335,-0.485,-44.240,-46.060,112.210
-0.463,0.346,-0.495,-37.520,-45.500,109.620
-0.391,0.362,-0.519,-32.200,-47.810,105.980
-0.390,0.411,-0.534,-28.070,-39.200,94.290
-0.432,0.425,-0.528,-22.750,-36.820,90.370
-0.502,0.436,-0.507,-16.870,-33.530,88.900
-0.546,0.478,-0.476,-11.130,-31.570,89.110
-0.525,0.458,-0.464,-7.490,-21.910,81.690
-0.582,0.437,-0.478,-1.890,-15.680,80.990
-0.557,0.392,-0.504,-1.960,-11.270,78.120
-0.553,0.433,-0.508,-6.930,-10.220,77.980
-0.537,0.452,-0.533,-10.360,-15.190,78.190
-0.561,0.471,-0.587,-12.040,-12.880,72.660
-0.606,0.533,-0.588,-9.730,-12.600,67.690
-0.607,0.557,-0.581,-8.540,-15.050,61.250
-0.615,0.559,-0.584,-8.400,-18.060,52.920
-0.643,0.570,-0.597,-7.560,-18.550,46.760
-0.691,0.571,-0.611,-12.670,-18.340,37.030
-0.727,0.560,-0.621,-13.300,-18.760,31.010
-0.748,0.599,-0.603,-12.110,-19.950,26.040
-0.762,0.618,-0.610,-11.620,-21.560,21.700
-0.793,0.630,-0.636,-11.620,-22.470,15.820
-0.818,0.663,-0.653,-11.830,-22.260,9.240
-0.833,0.694,-0.656,-9.520,-22.540,2.590
-0.859,0.729,-0.672,-7.630,-19.670,-6.160
-0.851,0.750,-0.691,-8.680,-15.330,-22.120
-0.902,0.790,-0.679,-9.660,-15.540,-29.260
-0.930,0.799,-0.693,-7.420,-15.470,-37.170
-0.890,0.798,-0.686,-6.090,-15.890,-46.970
-0.903,0.806,-0.674,-5.250,-15.470,-56.700
-0.885,0.783,-0.681,-6.090,-15.610,-67.340
-0.862,0.773,-0.681,-8.890,-14.980,-79.240
-0.863,0.762,-0.674,-14.770,-13.440,-94.990
-0.872,0.765,-0.653,-18.760,-10.220,-107.660
-0.874,0.774,-0.617,-19.880,-6.580,-119.910
-0.854,0.755,-0.551,-19.740,-4.340,-131.110
-0.824,0.718,-0.528,-17.990,-2.030,-140.280
-0.794,0.701,-0.514,-12.390,3.220,-148.050
-0.768,0.676,-0.488,-3.570,9.030,-154.840
-0.719,0.620,-0.473,10.990,14.560,-161.980
-0.670,0.580,-0.474,25.410,21.070,-166.390
-0.634,0.540,-0.471,42.630,29.470,-169.540
-0.587,0.476,-0.471,59.430,38.290,-171.360
-0.543,0.402,-0.469,71.890,46.690,-171.850
-0.498,0.326,-0.452,81.130,52.850,-171.920
-0.470,0.269,-0.457,86.940,59.360,-171.290

0.905,-1.208,-0.428,98.070,59.920,-163.100
0.920,-1.215,-0.447,91.070,53.690,-154.700
0.921,-1.245,-0.464,84.630,47.530,-147.140
0.943,-1.293,-0.481,78.750,41.510,-139.090
0.962,-1.324,-0.471,73.430,35.910,-130.270
0.982,-1.404,-0.479,69.020,30.520,-120.470
1.028,-1.473,-0.452,67.830,26.740,-108.010
1.077,-1.536,-0.433,67.970,24.710,-93.660
1.093,-1.589,-0.409,64.820,24.150,-78.400
1.101,-1.655,-0.413,61.040,21.280,-61.740
1.102,-1.668,-0.422,57.540,21.000,-42.770
1.106,-1.706,-0.421,51.940,20.090,-22.820
1.115,-1.773,-0.411,31.360,17.080,3.150
1.120,-1.795,-0.400,12.390,11.620,22.330
1.096,-1.761,-0.391,-4.200,5.250,41.090
1.061,-1.712,-0.390,-18.620,-0.700,59.430
1.027,-1.669,-0.388,-31.710,-5.880,76.510
1.016,-1.656,-0.382,-44.310,-10.010,92.610
1.023,-1.677,-0.386,-57.330,-15.470,107.870
1.060,-1.670,-0.399,-67.550,-20.230,122.780
1.077,-1.663,-0.402,-77.420,-24.640,136.430
1.078,-1.652,-0.391,-87.430,-28.770,149.590
1.086,-1.613,-0.391,-95.760,-32.760,166.460
1.085,-1.539,-0.396,-103.530,-36.330,177.730
1.080,-1.504,-0.409,-107.800,-41.020,188.300
1.102,-1.447,-0.410,-110.950,-46.200,198.380
1.088,-1.392,-0.403,-112.980,-52.150,208.320
1.071,-1.340,-0.406,-115.500,-55.580,217.210
1.053,-1.285,-0.400,-117.110,-59.290,225.890
1.026,-1.229,-0.399,-118.790,-63.700,235.410
0.999,-1.206,-0.389,-123.480,-68.880,241.640
0.994,-1.181,-0.387,-127.750,-74.410,247.100
0.979,-1.127,-0.376,-130.690,-79.800,252.280
0.952,-1.093,-0.357,-134.330,-86.100,255.570
0.908,-1.075,-0.357,-136.010,-89.810,257.740
0.881,-1.022,-0.352,-134.260,-93.310,260.050
0.857,-0.984,-0.350,-133.280,-94.080,259.980
0.825,-0.930,-0.347,-132.580,-93.730,260.680
0.770,-0.895,-0.351,-129.710,-96.180,263.760
0.748,-0.878,-0.358,-130.830,-97.370,264.670
0.726,-0.816,-0.370,-133.560,-99.120,264.320
0.699,-0.734,-0.363,-132.440,-102.830,265.370
0.617,-0.678,-0.362,-128.940,-105.000,267.750
0.573,-0.659,-0.373,-124.740,-105.280,269.010
0.527,-0.615,-0.366,-119.140,-104.930,270.480
0.477,-0.529,-0.344,-115.500,-105.070,270.410
0.403,-0.514,-0.319,-114.100,-105.630,268.800
0.351,-0.540,-0.324,-114.590,-104.370,266.280
0.326,-0.534,-0.309,-117.250,-103.950,263.200
0.302,-0.502,-0.337,-118.230,-103.180,260.470
0.286,-0.490,-0.346,-117.180,-102.480,257.530
0.252,-0.445,-0.367,-118.580,-101.990,253.750
0.201,-0.400,-0.397,-116.760,-100.100,248.570
0.159,-0.355,-0.421,-115.010,-97.930,244.090
0.132,-0.322,-0.422,-111.230,-96.810,238.980
0.105,-0.274,-0.415,-103.740,-95.690,234.780
0.078,-0.275,-0.420,-101.220,-92.120,230.510
0.047,-0.286,-0.449,-98.140,-88.970,225.400
0.013,-0.217,-0.451,-93.660,-86.310,221.060
-0.015,-0.163,-0.437,-85.750,-83.510,215.740
-0.051,-0.146,-0.441,-80.500,-80.430,208.950
-0.088,-0.164,-0.449,-81.690,-77.140,202.790
-0.105,-0.138,-0.446,-81.900,-73.220,196.770
-0.124,-0.098,-0.460,-78.400,-68.180,190.400
-0.116,-0.069,-0.488,-75.810,-66.920,186.550
-0.134,-0.082,-0.511,-74.830,-69.300,163.310
-0.125,-0.053,-0.523,-74.130,-67.130,171.850
-0.176,-0.021,-0.530,-71.050,-65.450,161.490
-0.219,0.015,-0.526,-66.710,-64.260,154.770
-0.244,0.040,-0.546,-61.040,-61.040,157.080
-0.268,0.041,-0.547,-57.050,-53.830,149.520
-0.319,0.056,-0.513,-49.560,-46.480,139.790
-0.305,0.062,-0.486,-50.260,-44.450,137.690
-0.329,0.015,-0.517,-51.520,-47.110,140.980
-0.297,0.035,-0.510,-50.960,-48.160,143.640
-0.309,0.115,-0.523,-46.200,-42.770,139.650
-0.335,0.134,-0.562,-42.630,-35.840,132.440
-0.369,0.143,-0.620,-36.050,-31.010,128.100
-0.387,0.192,-0.615,-29.120,-32.550,127.820
-0.396,0.181,-0.650,-26.600,-23.380,117.950
-0.414,0.215,-0.621,-16.310,-26.740,120.120
-0.444,0.226,-0.615,-11.900,-24.710,118.020
-0.458,0.223,-0.590,-7.070,-22.050,113.750
-0.465,0.232,-0.560,-0.700,-18.130,110.670
-0.491,0.239,-0.549,4.130,-15.890,109.690
-0.548,0.260,-0.563,7.210,-13.090,111.860
-0.599,0.278,-0.580,10.010,-12.740,110.880
-0.596,0.286,-0.607,13.090,-11.550,108.640
-0.599,0.291,-0.620,14.350,-10.500,104.580
-0.580,0.271,-0.636,12.320,-10.290,99.820
-0.584,0.262,-0.663,9.800,-10.500,95.760
-0.604,0.275,-0.654,7.560,-10.780,92.610
-0.635,0.276,-0.680,4.060,-10.570,89.320
-0.672,0.307,-0.699,1.050,-9.800,84.560
-0.691,0.364,-0.692,0.140,-9.310,79.730
-0.701,0.385,-0.703,-0.350,-9.310,74.970
-0.722,0.403,-0.690,-0.770,-9.730,71.190
-0.743,0.423,-0.682,-0.070,-11.060,66.640
-0.778,0.428,-0.669,-0.210,-12.740,63.070
-0.813,0.423,-0.673,-0.770,-14.980,59.920
-0.831,0.438,-0.686,-1.400,-16.450,57.680
-0.860,0.464,-0.698,-0.560,-17.780,55.650
-0.864,0.497,-0.721,-1.120,-16.170,51.800
-0.871,0.537,-0.769,0.140,-16.870,45.710
-0.855,0.551,-0.817,-2.310,-15.260,37.240
-0.828,0.586,-0.848,-4.340,-15.470,30.030
-0.832,0.614,-0.880,-5.460,-15.820,19.320
-0.799,0.635,-0.898,-8.680,-15.330,6.300
-0.785,0.660,-0.909,-12.040,-14.630,-6.580
-0.791,0.677,-0.908,-14.840,-14.000,-18.270
-0.786,0.700,-0.880,-17.850,-11.760,-30.940
-0.777,0.726,-0.855,-18.760,-9.310,-46.410
-0.758,0.738,-0.821,-17.360,-8.400,-57.260
-0.745,0.735,-0.783,-14.490,-7.980,-67.480
-0.737,0.718,-0.723,-11.130,-7.630,-76.440
-0.724,0.706,-0.691,-5.950,-7.210,-84.490
-0.716,0.686,-0.667,0.490,-6.370,-91.910
-0.701,0.653,-0.656,7.420,-5.110,-101.080
-0.691,0.603,-0.645,12.950,-3.570,-108.010

0.851,-1.014,-0.719,41.090,72.450,-155.540
0.942,-1.087,-0.753,47.180,73.010,-146.650
1.000,-1.134,-0.760,53.970,71.820,-136.570
1.039,-1.201,-0.763,60.060,69.300,-124.670
1.098,-1.297,-0.769,64.540,65.660,-110.670
1.158,-1.379,-0.761,65.030,58.800,-76.580
1.195,-1.471,-0.763,56.210,47.880,-72.520
1.207,-1.527,-0.737,42.210,34.090,-56.210
1.178,-1.560,-0.714,26.320,19.530,-39.550
1.137,-1.563,-0.706,10.360,7.980,-22.890
1.107,-1.542,-0.706,1.820,-2.380,-5.320
1.062,-1.501,-0.714,-2.730,-11.410,12.950
1.017,-1.468,-0.695,-4.830,-15.890,30.450
0.966,-1.465,-0.671,-10.150,-20.580,47.460
0.939,-1.477,-0.651,-19.250,-25.270,66.640
0.914,-1.488,-0.635,-33.390,-30.660,79.170
0.894,-1.470,-0.633,-43.120,-35.070,90.650
0.870,-1.455,-0.630,-49.280,-38.500,100.940
0.881,-1.472,-0.625,-55.510,-43.260,110.600
0.910,-1.460,-0.623,-60.970,-47.180,119.630
0.911,-1.421,-0.622,-64.260,-51.240,128.030
0.912,-1.398,-0.612,-67.480,-55.160,136.780
0.923,-1.379,-0.602,-70.350,-59.500,148.470
0.931,-1.330,-0.593,-71.470,-63.770,157.010
0.934,-1.273,-0.590,-71.050,-67.690,165.410
0.930,-1.235,-0.590,-70.560,-71.120,173.740
0.933,-1.197,-0.564,-70.000,-75.530,182.070
0.925,-1.177,-0.547,-71.750,-78.820,189.770
0.921,-1.160,-0.530,-74.060,-82.390,196.980
0.910,-1.121,-0.510,-75.810,-85.890,205.730
0.894,-1.093,-0.500,-80.010,-89.040,211.540
0.874,-1.077,-0.488,-85.820,-91.910,216.370
0.860,-1.065,-0.487,-90.650,-94.990,220.500
0.863,-1.042,-0.500,-92.680,-97.790,225.050
0.859,-1.004,-0.490,-95.200,-99.890,228.830
0.836,-0.977,-0.486,-99.050,-100.660,231.280
0.823,-0.956,-0.468,-103.880,-102.620,235.970
0.814,-0.954,-0.472,-110.320,-105.000,239.680
0.805,-0.910,-0.457,-114.730,-111.300,244.160
0.758,-0.843,-0.453,-119.770,-118.230,248.570
0.700,-0.810,-0.466,-123.550,-121.170,251.790
0.675,-0.796,-0.471,-126.700,-123.550,255.640
0.653,-0.724,-0.452,-129.010,-125.650,258.300
0.630,-0.671,-0.429,-131.530,-128.450,261.100
0.583,-0.651,-0.414,-132.370,-130.900,262.780
0.522,-0.581,-0.402,-129.920,-131.950,263.900
0.441,-0.520,-0.390,-126.560,-130.830,264.810
0.344,-0.482,-0.386,-123.620,-126.770,265.860
0.300,-0.475,-0.411,-122.780,-122.220,265.440
0.263,-0.433,-0.429,-120.960,-118.510,265.020
0.240,-0.399,-0.449,-119.630,-115.570,260.890
0.218,-0.370,-0.467,-116.550,-114.100,258.510
0.188,-0.309,-0.474,-112.000,-113.190,255.080
0.152,-0.234,-0.464,-105.350,-112.630,250.880
0.108,-0.204,-0.451,-99.820,-111.300,246.680
0.058,-0.182,-0.437,-94.500,-108.780,242.690
0.022,-0.126,-0.414,-86.170,-105.980,239.260
-0.011,-0.096,-0.410,-78.330,-102.690,235.620
-0.038,-0.077,-0.420,-69.510,-98.280,231.070
-0.077,-0.084,-0.454,-62.510,-92.540,227.640
-0.080,-0.105,-0.468,-64.400,-87.920,222.320
-0.068,-0.065,-0.513,-65.030,-85.190,217.000
-0.086,-0.030,-0.529,-62.790,-83.300,209.930
-0.122,0.018,-0.524,-56.910,-80.150,203.630
-0.181,0.061,-0.524,-51.240,-76.790,180.320
-0.218,0.094,-0.505,-42.000,-72.100,191.520
-0.229,0.117,-0.475,-29.400,-76.230,190.470
-0.241,0.105,-0.490,-25.970,-69.930,187.460
-0.307,0.092,-0.512,-29.400,-63.980,172.830
-0.411,0.224,-0.534,-27.650,-37.590,168.630
-0.385,0.228,-0.529,-13.160,-36.750,168.000
-0.338,0.196,-0.539,-7.210,-37.380,169.190
-0.282,0.171,-0.562,-5.180,-40.250,169.470
-0.297,0.206,-0.584,-8.960,-36.190,157.500
-0.324,0.275,-0.624,-2.100,-28.560,139.230
-0.399,0.259,-0.645,8.890,-25.900,134.050
-0.404,0.238,-0.630,10.850,-25.340,130.690
-0.400,0.246,-0.590,7.630,-26.740,124.740
-0.407,0.236,-0.577,-1.890,-24.640,114.590
-0.465,0.260,-0.604,-5.950,-26.740,109.550
-0.507,0.324,-0.636,-6.720,-30.310,107.240
-0.519,0.393,-0.693,-3.710,-27.580,97.300
-0.562,0.504,-0.703,5.810,-28.980,94.710
-0.595,0.498,-0.719,13.090,-22.610,88.270
-0.617,0.477,-0.683,18.410,-19.880,85.120
-0.631,0.443,-0.657,23.450,-17.360,81.340
-0.612,0.382,-0.511,25.130,-12.670,75.670
-0.603,0.293,-0.578,23.100,-12.880,72.870
-0.583,0.209,-0.583,11.760,-12.110,67.690
-0.589,0.161,-0.604,2.380,-11.410,62.650
-0.605,0.176,-0.626,-3.290,-8.750,59.710
-0.629,0.224,-0.671,-7.280,-6.650,58.590
-0.642,0.260,-0.697,-6.720,-3.710,55.020
-0.648,0.292,-0.688,-4.690,-4.060,55.510
-0.662,0.294,-0.725,-4.550,-4.480,53.830
-0.680,0.342,-0.740,-4.620,-1.260,50.960
-0.729,0.389,-0.762,-1.470,-1.120,53.130
-0.740,0.397,-0.790,-0.700,0.000,52.780
-0.752,0.396,-0.791,0.000,-1.540,52.220
-0.756,0.431,-0.797,0.070,-3.710,51.380
-0.756,0.466,-0.792,0.140,-6.020,49.000
-0.762,0.488,-0.783,0.000,-6.440,44.520
-0.794,0.507,-0.763,0.420,-6.160,40.110
-0.791,0.519,-0.748,0.280,-7.560,35.560
-0.785,0.529,-0.754,1.750,-9.660,28.770
-0.779,0.550,-0.768,2.310,-8.680,20.370
-0.785,0.578,-0.760,0.980,-11.410,11.410
-0.778,0.605,-0.766,0.280,-12.040,0.980
-0.747,0.621,-0.772,1.890,-12.880,-9.940
-0.751,0.623,-0.752,-1.890,-12.670,-26.740
-0.772,0.659,-0.756,-4.060,-12.530,-35.980
-0.741,0.645,-0.763,-4.830,-13.930,-46.690
-0.708,0.649,-0.747,-4.550,-14.840,-58.310
-0.724,0.673,-0.731,-3.010,-13.790,-68.390
-0.719,0.676,-0.714,0.770,-14.140,-77.280
-0.703,0.657,-0.698,5.740,-14.560,-88.690
-0.672,0.643,-0.681,10.570,-13.930,-95.340
-0.669,0.611,-0.664,14.700,-10.920,-102.690
-0.658,0.575,-0.628,20.510,-12.810,-105.770

0.752,-0.983,-0.825,23.380,108.150,-131.110
0.842,-1.029,-0.801,37.870,107.660,-124.180
0.896,-1.117,-0.800,45.640,102.060,-115.710
0.944,-1.179,-0.807,48.790,92.540,-104.020
0.967,-1.226,-0.821,53.060,80.010,-91.980
0.979,-1.323,-0.819,51.450,65.450,-80.850
1.010,-1.427,-0.799,44.100,50.330,-69.790
1.022,-1.476,-0.812,35.700,36.540,-57.330
1.014,-1.482,-0.813,29.190,23.170,-41.650
0.959,-1.487,-0.817,23.100,6.860,-25.830
0.864,-1.460,-0.806,18.060,-2.520,-8.400
0.782,-1.446,-0.810,12.530,-6.300,7.630
0.722,-1.453,-0.839,5.950,-8.890,24.290
0.681,-1.454,-0.866,-0.700,-9.870,44.730
0.681,-1.470,-0.883,-7.000,-9.800,57.190
0.694,-1.485,-0.898,-14.560,-11.270,68.530
0.719,-1.493,-0.901,-23.870,-15.750,77.350
0.752,-1.501,-0.889,-34.510,-21.000,84.770
0.756,-1.482,-0.882,-41.300,-28.770,93.450
0.762,-1.451,-0.882,-47.250,-35.630,101.850
0.769,-1.415,-0.884,-53.340,-42.070,112.490
0.780,-1.361,-0.873,-57.260,-47.950,120.190
0.799,-1.329,-0.862,-61.460,-54.670,127.820
0.815,-1.285,-0.848,-64.680,-62.300,135.030
0.823,-1.232,-0.822,-68.390,-72.450,142.240
0.822,-1.198,-0.808,-73.430,-79.870,148.750
0.818,-1.160,-0.789,-78.750,-87.570,155.260
0.809,-1.111,-0.778,-82.320,-94.640,164.570
0.795,-1.038,-0.770,-83.300,-100.100,171.570
0.774,-1.003,-0.768,-82.110,-103.530,178.220
0.769,-0.985,-0.753,-81.970,-106.400,183.890
0.764,-0.962,-0.738,-81.130,-109.690,189.210
0.752,-0.948,-0.722,-80.290,-111.160,193.830
0.735,-0.915,-0.700,-79.660,-111.580,198.310
0.712,-0.881,-0.681,-80.780,-112.980,201.740
0.691,-0.894,-0.675,-84.420,-116.060,203.630
0.682,-0.849,-0.661,-86.520,-120.680,206.850
0.665,-0.825,-0.656,-89.250,-123.620,209.230
0.648,-0.806,-0.646,-93.520,-129.080,212.380
0.614,-0.755,-0.643,-95.200,-132.650,213.640
0.582,-0.693,-0.640,-94.080,-135.450,217.490
0.530,-0.655,-0.626,-90.580,-136.220,219.940
0.481,-0.613,-0.611,-85.400,-136.220,223.230
0.435,-0.555,-0.596,-78.470,-134.890,226.730
0.377,-0.520,-0.572,-70.770,-132.160,228.830
0.335,-0.493,-0.558,-59.570,-125.720,230.020
0.285,-0.473,-0.523,-46.900,-120.050,231.490
0.270,-0.510,-0.475,-41.720,-115.570,231.140
0.246,-0.560,-0.448,-42.630,-112.350,228.480
0.209,-0.543,-0.407,-43.750,-108.640,225.610
0.164,-0.543,-0.400,-48.160,-104.440,224.280
0.102,-0.502,-0.410,-51.660,-99.680,224.980
0.056,-0.433,-0.437,-49.210,-96.180,225.960
0.020,-0.375,-0.484,-47.180,-87.640,227.640
0.004,-0.331,-0.505,-42.910,-82.320,227.570
-0.010,-0.286,-0.498,-38.010,-77.980,225.890
-0.016,-0.296,-0.492,-38.780,-71.120,220.290
-0.017,-0.333,-0.478,-41.020,-68.880,216.510
-0.003,-0.353,-0.473,-45.500,-65.800,211.400
-0.034,-0.287,-0.451,-47.530,-65.870,208.950
-0.061,-0.267,-0.462,-47.460,-65.730,206.360
-0.084,-0.275,-0.488,-46.620,-64.680,205.380
-0.098,-0.261,-0.517,-45.010,-64.470,204.750
-0.095,-0.208,-0.513,-42.210,-64.120,202.090
-0.116,-0.189,-0.513,-40.600,-61.880,197.890
-0.130,-0.198,-0.535,-37.310,-56.490,193.550
-0.196,-0.153,-0.510,-37.100,-59.360,198.660
-0.208,-0.230,-0.619,-44.380,-24.220,159.740
-0.239,-0.066,-0.538,-32.410,-31.360,174.580
-0.252,-0.142,-0.577,-35.070,-29.190,173.530
-0.206,-0.102,-0.573,-37.590,-28.700,172.690
-0.226,-0.035,-0.549,-38.430,-23.310,165.550
-0.256,0.033,-0.565,-36.260,-10.220,151.060
-0.314,0.074,-0.533,-31.220,-6.580,143.430
-0.356,0.081,-0.549,-23.590,0.560,137.200
-0.378,0.131,-0.536,-13.790,0.140,139.440
-0.356,0.126,-0.541,-11.270,-0.560,142.520
-0.394,0.122,-0.539,-7.490,-3.780,143.780
-0.364,0.121,-0.549,-8.610,-3.220,141.890
-0.402,0.154,-0.571,-5.880,-9.800,148.120
-0.411,0.136,-0.602,-7.420,-7.280,142.310
-0.410,0.176,-0.606,-3.850,-3.990,136.850
-0.413,0.227,-0.601,0.490,-3.150,132.860
-0.439,0.247,-0.605,1.470,3.010,124.670
-0.472,0.264,-0.628,5.600,11.060,117.110
-0.472,0.331,-0.638,10.080,18.340,113.050
-0.490,0.372,-0.646,14.910,24.290,111.930
-0.517,0.387,-0.628,16.590,21.420,113.610
-0.501,0.360,-0.633,12.600,19.810,108.920
-0.508,0.352,-0.644,5.180,18.340,102.620
-0.488,0.328,-0.678,-0.070,17.360,92.190
-0.501,0.360,-0.696,-2.730,15.050,85.050
-0.526,0.401,-0.730,-4.270,11.550,79.660
-0.522,0.411,-0.766,-5.670,8.050,74.060
-0.536,0.403,-0.787,-7.490,2.100,70.210
-0.557,0.424,-0.804,-6.440,-2.380,67.620
-0.590,0.452,-0.813,-2.800,-4.410,64.540
-0.620,0.462,-0.819,2.240,-3.220,62.020
-0.622,0.438,-0.805,6.440,-3.850,59.080
-0.636,0.434,-0.815,8.400,-7.420,57.190
-0.657,0.460,-0.812,10.360,-10.640,54.600
-0.641,0.549,-0.906,14.840,-6.300,56.350
-0.573,0.473,-0.842,15.960,-9.170,35.910
-0.703,0.718,-0.872,9.660,-8.680,28.350
-0.732,0.661,-0.919,11.480,-7.140,27.650
-0.603,0.509,-0.924,7.630,-19.460,15.890
-0.554,0.542,-0.907,2.660,-25.690,7.700
-0.671,0.627,-0.887,1.680,-30.030,6.300
-0.711,0.624,-0.900,1.890,-29.050,-3.430
-0.639,0.627,-0.882,0.000,-35.980,-7.700
-0.628,0.607,-0.910,1.540,-38.710,-13.510
-0.612,0.579,-0.905,2.380,-38.850,-23.240
-0.617,0.587,-0.878,4.900,-43.400,-23.730
-0.607,0.514,-0.899,9.030,-41.860,-39.480
-0.537,0.484,-0.892,9.030,-37.590,-52.360
-0.515,0.454,-0.888,4.130,-30.730,-66.360
-0.535,0.452,-0.848,1.050,-26.320,-76.580
-0.556,0.444,-0.824,-0.210,-26.110,-80.360
-0.563,0.429,-0.820,0.840,-20.790,-107.100

0.543,-1.061,-0.946,3.220,54.600,-132.510
0.596,-1.118,-1.008,0.910,55.650,-129.150
0.636,-1.176,-1.051,0.280,52.780,-123.620
0.634,-1.210,-1.079,3.150,46.830,-113.120
0.639,-1.258,-1.113,4.060,43.330,-103.950
0.666,-1.263,-1.127,7.770,38.080,-90.090
0.666,-1.268,-1.142,11.620,32.340,-78.330
0.671,-1.271,-1.172,13.790,24.290,-64.960
0.641,-1.278,-1.182,18.900,17.220,-48.860
0.630,-1.275,-1.186,23.240,13.300,-34.230
0.606,-1.278,-1.178,28.700,8.190,-19.670
0.576,-1.279,-1.178,31.570,3.430,-1.050
0.558,-1.320,-1.168,29.820,-3.150,11.340
0.557,-1.346,-1.144,25.410,-11.550,22.820
0.562,-1.365,-1.101,17.710,-21.770,32.550
0.562,-1.391,-1.060,7.000,-50.400,41.580
0.558,-1.403,-1.011,-4.060,-46.410,50.540
0.566,-1.406,-0.976,-14.560,-56.350,59.080
0.570,-1.387,-0.943,-25.410,-65.590,66.570
0.576,-1.360,-0.934,-35.560,-73.780,73.780
0.574,-1.300,-0.929,-44.660,-80.500,83.930
0.586,-1.262,-0.921,-50.190,-86.450,91.490
0.605,-1.228,-0.901,-55.370,-93.170,99.610
0.621,-1.194,-0.860,-59.990,-97.580,107.730
0.630,-1.168,-0.833,-64.120,-101.710,115.150
0.632,-1.131,-0.802,-65.940,-104.790,125.370
0.630,-1.076,-0.780,-68.040,-107.520,133.420
0.617,-1.041,-0.758,-69.160,-110.460,141.260
0.605,-1.019,-0.754,-69.370,-112.630,149.170
0.599,-0.988,-0.762,-70.000,-114.940,156.100
0.598,-0.944,-0.753,-69.440,-117.670,162.680
0.595,-0.916,-0.741,-67.200,-120.120,169.400
0.584,-0.881,-0.702,-66.010,-122.990,178.080
0.559,-0.857,-0.649,-66.360,-125.930,183.260
0.521,-0.838,-0.598,-65.240,-129.010,187.110
0.495,-0.837,-0.560,-64.540,-133.000,190.470
0.447,-0.818,-0.543,-69.020,-135.170,193.270
0.387,-0.767,-0.541,-74.200,-136.430,196.070
0.333,-0.718,-0.567,-79.240,-136.780,198.800
0.300,-0.669,-0.584,-83.090,-136.570,199.920
0.276,-0.622,-0.590,-81.550,-136.290,200.970
0.246,-0.577,-0.591,-81.550,-135.170,201.040
0.221,-0.558,-0.600,-79.520,-134.470,200.900
0.196,-0.538,-0.615,-77.770,-131.530,201.670
0.187,-0.532,-0.621,-77.140,-130.270,202.020
0.174,-0.491,-0.609,-78.610,-130.410,200.970
0.148,-0.462,-0.598,-79.450,-131.040,198.730
0.098,-0.423,-0.605,-79.100,-130.410,197.400
0.070,-0.403,-0.613,-77.700,-129.010,194.950
0.050,-0.371,-0.614,-73.990,-127.610,193.200
0.028,-0.334,-0.504,-69.510,-124.460,191.030
-0.015,-0.299,-0.620,-63.840,-121.030,188.860
-0.051,-0.292,-0.615,-56.630,-116.760,187.670
-0.079,-0.302,-0.604,-48.790,-112.210,185.780
-0.087,-0.287,-0.585,-43.470,-108.570,184.310
-0.105,-0.266,-0.561,-37.170,-104.930,182.630
-0.123,-0.257,-0.576,-32.410,-100.240,183.190
-0.175,-0.227,-0.587,-28.490,-92.050,182.980
-0.191,-0.187,-0.600,-25.550,-86.380,182.350
-0.204,-0.158,-0.618,-24.080,-82.460,181.650
-0.219,-0.135,-0.658,-22.050,-77.770,178.500
-0.228,-0.092,-0.645,-20.370,-73.500,175.560
-0.244,-0.055,-0.612,-17.360,-71.120,172.830
-0.285,-0.048,-0.567,-12.460,-68.600,170.660
-0.342,-0.049,-0.507,-3.430,-66.850,169.820
-0.391,-0.041,-0.459,6.160,-62.090,170.100
-0.426,-0.037,-0.474,4.200,-49.840,166.110
-0.445,-0.061,-0.559,-3.290,-33.670,159.180
-0.476,0.035,-0.539,1.330,-28.070,154.280
-0.481,0.057,-0.566,0.980,-20.860,153.160
-0.461,0.057,-0.577,2.730,-24.710,157.430
-0.429,0.078,-0.580,3.290,-25.060,153.370
-0.437,0.127,-0.553,6.090,-26.320,147.000
-0.480,0.152,-0.534,14.700,-26.180,143.360
-0.514,0.139,-0.522,18.060,-23.310,138.670
-0.541,0.136,-0.504,19.110,-17.920,132.790
-0.588,0.133,-0.474,17.640,-16.170,131.460
-0.583,0.102,-0.497,11.340,-13.510,124.670
-0.553,0.123,-0.518,6.160,-11.690,122.080
-0.605,0.157,-0.527,3.780,-12.250,116.620
-0.605,0.188,-0.529,3.920,-12.110,112.910
-0.622,0.208,-0.539,3.780,-12.740,112.000
-0.645,0.232,-0.556,5.600,-10.220,108.570
-0.631,0.261,-0.558,7.840,-7.490,104.020
-0.620,0.273,-0.596,12.740,-6.510,101.220
-0.604,0.246,-0.632,13.020,-4.550,97.650
-0.604,0.246,-0.667,10.010,-2.940,93.030
-0.595,0.263,-0.691,7.980,-1.610,87.780
-0.593,0.267,-0.702,6.160,-1.050,82.110
-0.582,0.280,-0.701,4.620,-1.470,78.120
-0.602,0.295,-0.697,3.290,-2.730,72.450
-0.606,0.324,-0.684,2.800,-1.890,68.530
-0.615,0.340,-0.670,2.030,-1.750,64.400
-0.606,0.353,-0.673,2.870,-2.100,61.180
-0.607,0.382,-0.672,5.250,-2.590,57.960
-0.614,0.409,-0.696,7.490,-1.680,54.950
-0.624,0.426,-0.717,8.890,-1.540,52.290
-0.625,0.440,-0.736,10.640,-2.100,49.910
-0.628,0.451,-0.755,11.130,-2.520,46.480
-0.610,0.458,-0.767,9.940,-3.570,42.350
-0.595,0.479,-0.783,9.590,-5.250,38.220
-0.592,0.494,-0.793,9.800,-7.560,33.600
-0.602,0.512,-0.803,10.710,-11.130,30.170
-0.616,0.529,-0.816,8.610,-12.110,24.430
-0.640,0.561,-0.812,5.810,-15.050,18.060
-0.649,0.587,-0.813,3.220,-16.730,10.500
-0.643,0.613,-0.819,0.770,-17.290,3.780
-0.671,0.643,-0.808,0.070,-19.110,-3.150
-0.685,0.661,-0.813,-0.280,-20.790,-8.470
-0.682,0.661,-0.808,1.470,-22.960,-13.930
-0.653,0.643,-0.809,-0.420,-19.670,-27.510
-0.669,0.660,-0.793,-0.070,-21.140,-38.080
-0.670,0.630,-0.796,-1.540,-17.080,-48.230
-0.692,0.623,-0.773,-0.630,-18.200,-57.050
-0.682,0.587,-0.761,-0.560,-12.530,-67.200
-0.676,0.568,-0.754,0.560,-10.920,-74.130
-0.675,0.529,-0.732,1.890,-13.300,-76.930
-0.632,0.473,-0.735,1.680,-8.260,-87.010
-0.624,0.455,-0.719,2.450,-6.370,-95.830

0.831,-0.940,-0.781,5.460,92.610,-182.350
0.873,-0.955,-0.812,13.930,94.430,-175.980
0.935,-0.972,-0.820,21.420,92.470,-169.330
0.994,-1.008,-0.817,29.190,88.760,-160.930
1.034,-1.041,-0.823,36.890,82.250,-151.690
1.066,-1.112,-0.834,44.100,75.670,-141.610
1.109,-1.201,-0.837,46.970,68.670,-126.910
1.146,-1.327,-0.846,43.470,60.130,-115.010
1.180,-1.414,-0.858,38.360,49.980,-101.290
1.207,-1.465,-0.880,34.090,40.180,-87.780
1.204,-1.493,-0.892,32.900,31.220,-71.610
1.159,-1.521,-0.892,30.660,21.980,-54.250
1.136,-1.558,-0.868,23.030,14.770,-35.980
1.115,-1.588,-0.853,12.530,2.800,-16.380
1.071,-1.596,-0.870,0.630,-6.230,2.450
1.040,-1.588,-0.880,-11.410,-13.650,26.180
1.009,-1.558,-0.888,-28.000,-21.560,42.350
0.956,-1.525,-0.892,-36.820,-31.150,58.520
0.903,-1.498,-0.892,-44.240,-38.780,72.870
0.867,-1.485,-0.875,-50.680,-47.880,85.610
0.875,-1.517,-0.871,-59.220,-55.020,99.890
0.895,-1.511,-0.865,-68.040,-62.580,109.620
0.894,-1.460,-0.859,-71.680,-69.440,118.790
0.871,-1.421,-0.861,-74.340,-74.970,127.260
0.858,-1.372,-0.852,-75.040,-81.550,136.150
0.859,-1.315,-0.831,-73.500,-86.520,144.410
0.862,-1.266,-0.817,-70.840,-91.070,152.600
0.855,-1.217,-0.797,-65.100,-94.500,163.800
0.856,-1.151,-0.777,-58.800,-96.810,172.130
0.862,-1.131,-0.756,-52.920,-98.070,180.320
0.884,-1.125,-0.732,-50.400,-99.750,187.460
0.902,-1.086,-0.671,-48.720,-103.460,194.530
0.895,-1.068,-0.640,-49.980,-106.960,200.480
0.882,-1.057,-0.625,-51.100,-109.760,206.220
0.879,-1.018,-0.592,-52.920,-112.350,213.080
0.876,-0.990,-0.561,-54.810,-114.940,217.840
0.870,-0.960,-0.540,-55.930,-116.900,222.600
0.853,-0.949,-0.530,-58.800,-118.370,226.660
0.852,-0.933,-0.522,-62.020,-119.560,230.790
0.856,-0.896,-0.497,-62.930,-120.610,235.340
0.843,-0.875,-0.468,-66.150,-122.150,239.190
0.820,-0.872,-0.446,-73.500,-124.320,242.550
0.795,-0.824,-0.427,-78.190,-126.980,248.360
0.749,-0.738,-0.420,-77.280,-126.630,252.980
0.692,-0.717,-0.446,-76.650,-124.320,257.320
0.663,-0.699,-0.456,-77.280,-121.310,260.260
0.630,-0.646,-0.441,-77.490,-118.580,262.220
0.592,-0.601,-0.434,-77.210,-116.620,263.620
0.541,-0.586,-0.443,-77.840,-113.960,263.900
0.505,-0.580,-0.438,-79.100,-110.810,264.040
0.458,-0.501,-0.431,-76.090,-108.500,263.830
0.394,-0.460,-0.415,-71.190,-104.230,263.900
0.342,-0.473,-0.424,-71.610,-98.490,263.130
0.281,-0.447,-0.407,-72.590,-95.620,261.940
0.249,-0.410,-0.400,-73.780,-96.180,259.490
0.215,-0.375,-0.407,-72.520,-95.690,254.800
0.184,-0.326,-0.407,-67.270,-93.590,249.270
0.135,-0.272,-0.395,-61.530,-91.910,245.140
0.095,-0.242,-0.368,-55.720,-89.740,242.690
0.046,-0.227,-0.373,-50.540,-86.590,239.820
-0.007,-0.204,-0.409,-47.460,-78.540,237.930
-0.031,-0.191,-0.422,-47.880,-73.570,234.640
-0.053,-0.158,-0.430,-50.330,-69.440,228.970
-0.092,-0.105,-0.434,-48.510,-66.640,223.650
-0.121,-0.065,-0.427,-44.170,-63.910,217.910
-0.182,-0.032,-0.427,-39.690,-59.850,214.130
-0.212,-0.031,-0.439,-36.330,-57.330,209.300
-0.217,-0.029,-0.448,-34.020,-50.540,206.430
-0.250,-0.055,-0.462,-33.740,-45.570,184.030
-0.308,0.008,-0.513,-37.940,-13.370,177.450
-0.296,0.020,-0.483,-37.310,-21.350,181.790
-0.139,-0.015,-0.501,-41.790,-29.050,183.820
-0.212,0.009,-0.521,-48.510,-31.920,180.810
-0.209,0.070,-0.529,-54.110,-30.940,167.720
-0.244,0.164,-0.527,-48.300,-27.440,150.430
-0.323,0.218,-0.538,-42.560,-21.420,140.420
-0.385,0.204,-0.560,-37.100,-9.100,131.390
-0.432,0.215,-0.529,-28.490,-6.860,129.150
-0.403,0.206,-0.553,-25.900,-7.070,128.660
-0.361,0.206,-0.582,-27.440,-2.240,119.700
-0.375,0.219,-0.624,-28.210,-6.650,118.300
-0.386,0.239,-0.667,-28.490,-12.460,113.890
-0.381,0.300,-0.674,-21.630,-18.410,116.270
-0.416,0.340,-0.691,-13.790,-20.090,116.130
-0.450,0.366,-0.707,-5.740,-19.460,113.750
-0.456,0.357,-0.709,1.190,-16.870,109.270
-0.484,0.363,-0.680,7.980,-18.970,103.950
-0.483,0.366,-0.672,11.130,-21.000,101.430
-0.523,0.356,-0.713,11.900,-19.110,97.930
-0.545,0.345,-0.746,6.300,-14.210,86.590
-0.526,0.356,-0.747,2.940,-11.760,78.890
-0.512,0.369,-0.739,1.050,-12.530,71.330
-0.506,0.389,-0.773,3.780,-11.620,69.580
-0.583,0.388,-0.799,7.630,-8.540,65.170
-0.590,0.404,-0.827,7.630,-6.230,59.430
-0.594,0.444,-0.854,7.840,-6.370,52.430
-0.617,0.487,-0.875,9.660,-7.000,45.290
-0.626,0.525,-0.895,13.300,-6.580,38.150
-0.661,0.544,-0.908,16.450,-7.210,33.250
-0.679,0.581,-0.920,17.710,-7.420,26.740
-0.690,0.606,-0.920,19.390,-9.170,20.020
-0.711,0.621,-0.913,22.330,-15.050,14.840
-0.714,0.624,-0.890,20.300,-17.430,3.990
-0.671,0.605,-0.867,17.360,-24.010,-7.840
-0.744,0.616,-0.827,14.350,-31.710,-15.190
-0.779,0.635,-0.842,14.140,-35.070,-21.490
-0.733,0.562,-0.828,11.270,-40.600,-29.750
-0.692,0.524,-0.802,4.410,-46.200,-40.880
-0.683,0.530,-0.817,-3.500,-37.380,-57.260
-0.712,0.547,-0.797,-7.490,-37.380,-65.800
-0.714,0.519,-0.792,-11.550,-36.330,-74.830
-0.711,0.516,-0.757,-15.260,-38.500,-85.890
-0.677,0.484,-0.759,-19.250,-30.240,-96.670
-0.673,0.458,-0.742,-19.600,-27.090,-106.050
-0.642,0.428,-0.709,-18.620,-24.990,-109.410
-0.606,0.387,-0.718,-20.440,-14.910,-123.970
-0.588,0.389,-0.698,-18.480,-11.270,-132.370
-0.555,0.339,-0.690,-18.690,-4.480,-141.120
-0.529,0.328,-0.666,-16.310,1.680,-148.330

0.741,-1.157,-0.616,47.250,55.720,-131.110
0.761,-1.199,-0.612,42.560,51.660,-124.600
0.770,-1.197,-0.614,37.590,47.670,-117.600
0.774,-1.177,-0.628,32.620,43.540,-109.340
0.788,-1.182,-0.634,31.080,39.130,-105.140
0.825,-1.187,-0.641,32.060,34.790,-96.950
0.847,-1.236,-0.655,31.010,30.870,-87.990
0.868,-1.296,-0.670,26.740,27.300,-77.000
0.907,-1.357,-0.675,19.180,22.680,-67.060
0.956,-1.411,-0.671,9.660,13.370,-56.210
0.979,-1.444,-0.691,2.030,7.280,-42.770
0.999,-1.461,-0.708,-2.940,1.960,-28.000
1.010,-1.467,-0.719,-6.160,-3.080,-12.390
0.989,-1.461,-0.712,-10.080,-7.490,8.120
0.957,-1.453,-0.693,-13.440,-11.340,23.730
0.918,-1.438,-0.675,-16.450,-14.980,39.830
0.898,-1.429,-0.653,-19.600,-19.180,55.230
0.879,-1.423,-0.650,-23.240,-21.490,70.070
0.865,-1.425,-0.645,-28.140,-24.290,83.580
0.864,-1.444,-0.651,-39.480,-27.720,99.120
0.867,-1.441,-0.654,-49.980,-31.990,109.760
0.879,-1.444,-0.651,-61.810,-37.870,118.720
0.879,-1.438,-0.628,-73.710,-47.180,126.700
0.877,-1.415,-0.626,-84.490,-54.110,134.680
0.869,-1.371,-0.623,-92.050,-60.480,142.590
0.873,-1.355,-0.623,-99.750,-66.010,153.160
0.890,-1.355,-0.621,-105.420,-71.330,161.210
0.908,-1.328,-0.630,-111.440,-76.930,168.420
0.910,-1.269,-0.630,-118.510,-83.230,175.420
0.898,-1.251,-0.650,-126.770,-91.700,181.440
0.882,-1.178,-0.651,-131.320,-97.720,187.460
0.857,-1.118,-0.655,-130.970,-103.250,194.110
0.835,-1.085,-0.654,-127.470,-108.010,205.240
0.820,-1.037,-0.647,-122.990,-110.950,211.680
0.803,-1.013,-0.622,-122.430,-112.770,215.810
0.791,-1.026,-0.612,-126.140,-114.380,218.330
0.782,-1.004,-0.596,-126.560,-123.270,224.770
0.782,-1.008,-0.587,-130.410,-128.660,227.360
0.766,-0.935,-0.561,-130.410,-134.960,230.370
0.719,-0.857,-0.561,-126.210,-139.160,235.900
0.668,-0.797,-0.567,-116.830,-141.260,239.400
0.618,-0.721,-0.563,-108.640,-141.820,242.340
0.575,-0.659,-0.553,-100.800,-141.120,244.930
0.532,-0.623,-0.536,-95.270,-139.510,246.190
0.459,-0.606,-0.501,-96.460,-139.650,246.330
0.409,-0.598,-0.513,-99.190,-138.880,245.350
0.361,-0.540,-0.494,-101.220,-137.760,243.320
0.325,-0.496,-0.495,-103.600,-137.060,240.450
0.307,-0.470,-0.496,-103.250,-135.520,236.950
0.273,-0.432,-0.504,-101.500,-132.650,234.360
0.219,-0.394,-0.483,-97.720,-129.360,231.630
0.185,-0.378,-0.471,-96.950,-128.030,228.900
0.155,-0.354,-0.456,-94.920,-127.750,223.300
0.124,-0.298,-0.444,-90.090,-126.980,219.800
0.095,-0.247,-0.427,-85.330,-125.160,215.880
0.065,-0.240,-0.424,-80.920,-121.310,211.190
0.042,-0.215,-0.419,-77.350,-118.860,206.710
0.024,-0.180,-0.404,-73.430,-116.480,202.020
-0.003,-0.158,-0.410,-68.460,-112.070,197.190
-0.024,-0.171,-0.462,-65.100,-105.070,192.150
-0.018,-0.168,-0.485,-62.160,-98.910,188.160
-0.017,-0.088,-0.467,-54.600,-95.200,184.730
-0.049,-0.045,-0.481,-47.600,-88.620,181.720
-0.106,-0.058,-0.508,-44.380,-81.760,178.710
-0.121,-0.047,-0.501,-39.200,-78.330,176.190
-0.130,0.026,-0.483,-26.810,-72.590,178.150
-0.141,-0.031,-0.529,-25.410,-56.210,158.830
-0.200,0.033,-0.479,-21.980,-46.830,156.730
-0.202,0.015,-0.457,-16.590,-44.030,157.780
-0.169,0.031,-0.476,-16.940,-41.370,162.750
-0.184,0.041,-0.498,-20.300,-29.750,154.490
-0.223,0.074,-0.487,-21.840,-18.690,139.720
-0.285,0.110,-0.481,-15.610,-12.600,128.310
-0.276,0.114,-0.499,-6.230,-4.760,121.450
-0.330,0.125,-0.514,0.140,-2.870,121.100
-0.348,0.095,-0.557,6.230,3.640,113.890
-0.348,0.131,-0.563,10.500,2.380,115.990
-0.346,0.126,-0.563,8.750,-4.340,116.410
-0.321,0.127,-0.584,3.010,-7.140,111.720
-0.433,0.140,-0.621,3.850,-13.860,117.320
-0.454,0.126,-0.633,4.060,-17.010,117.880
-0.466,0.166,-0.618,6.720,-20.860,119.560
-0.484,0.199,-0.639,9.660,-19.880,118.370
-0.524,0.224,-0.667,8.680,-16.030,112.350
-0.526,0.252,-0.691,7.070,-12.600,106.330
-0.549,0.325,-0.695,8.610,-12.040,102.270
-0.576,0.357,-0.724,10.430,-9.310,96.390
-0.620,0.369,-0.756,9.590,-3.360,90.300
-0.601,0.381,-0.777,10.780,0.770,85.820
-0.622,0.409,-0.776,11.550,2.100,80.640
-0.629,0.415,-0.789,12.040,3.780,78.960
-0.668,0.430,-0.796,10.220,4.690,75.530
-0.671,0.467,-0.809,9.380,4.830,69.720
-0.692,0.500,-0.817,8.470,5.110,62.160
-0.715,0.525,-0.833,6.230,5.110,50.890
-0.714,0.548,-0.854,6.440,2.030,44.870
-0.723,0.579,-0.889,8.820,0.910,38.080
-0.743,0.592,-0.899,11.550,-0.560,30.310
-0.727,0.578,-0.903,10.850,-5.040,20.720
-0.716,0.580,-0.923,4.970,-8.820,8.400
-0.715,0.612,-0.912,-1.470,-13.650,-4.970
-0.688,0.614,-0.910,-2.940,-19.740,-13.510
-0.700,0.606,-0.894,-6.440,-21.910,-26.670
-0.716,0.613,-0.859,-7.280,-26.810,-35.280
-0.679,0.604,-0.814,-11.900,-29.610,-46.760
-0.690,0.609,-0.783,-12.530,-29.750,-54.320
-0.671,0.575,-0.748,-13.160,-31.500,-60.900
-0.680,0.553,-0.722,-13.160,-31.850,-68.740
-0.651,0.534,-0.711,-12.320,-25.550,-86.170
-0.590,0.528,-0.687,-9.450,-21.770,-93.100
-0.589,0.486,-0.704,-3.710,-17.990,-98.630
-0.584,0.447,-0.705,1.680,-15.890,-103.250
-0.502,0.413,-0.722,6.440,-7.210,-120.190
-0.482,0.365,-0.718,11.480,-3.570,-125.160
-0.456,0.330,-0.704,18.900,-9.030,-122.080
-0.432,0.243,-0.724,19.880,0.560,-133.770
-0.456,0.232,-0.697,17.080,13.650,-143.430
-0.405,0.207,-0.679,16.380,18.760,-153.370
-0.394,0.190,-0.661,16.660,20.510,-159.250

0.735,-1.129,-0.648,18.130,34.230,-128.590
0.740,-1.132,-0.694,22.820,31.990,-122.990
0.775,-1.161,-0.737,25.900,30.100,-115.080
0.781,-1.197,-0.773,28.980,28.490,-105.490
0.783,-1.239,-0.794,29.750,26.740,-95.830
0.787,-1.308,-0.809,28.000,23.870,-85.260
0.781,-1.396,-0.809,17.710,20.020,-56.910
0.794,-1.501,-0.823,5.460,14.770,-60.410
0.813,-1.556,-0.852,-8.050,8.750,-48.930
0.808,-1.579,-0.880,-20.020,1.820,-36.750
0.797,-1.594,-0.902,-28.490,-5.390,-23.870
0.746,-1.581,-0.915,-32.340,-14.910,-9.310
0.719,-1.597,-0.917,-36.820,-20.090,5.040
0.700,-1.603,-0.900,-41.930,-25.550,19.250
0.675,-1.597,-0.887,-51.030,-31.430,37.100
0.642,-1.586,-0.881,-58.100,-37.170,50.330
0.616,-1.578,-0.887,-65.870,-42.910,62.860
0.619,-1.564,-0.909,-73.780,-51.100,75.460
0.646,-1.550,-0.921,-79.730,-57.680,86.800
0.670,-1.518,-0.916,-83.370,-64.260,97.020
0.690,-1.498,-0.900,-87.010,-71.260,109.480
0.707,-1.464,-0.866,-92.540,-78.680,118.230
0.711,-1.439,-0.834,-98.000,-86.310,126.000
0.711,-1.402,-0.793,-103.320,-93.730,134.260
0.717,-1.383,-0.777,-107.520,-102.410,142.240
0.740,-1.350,-0.778,-108.850,-107.940,150.430
0.763,-1.301,-0.771,-108.080,-112.000,159.180
0.769,-1.268,-0.775,-107.800,-115.710,170.450
0.754,-1.163,-0.757,-105.630,-119.210,179.410
0.722,-1.120,-0.747,-106.330,-122.290,186.970
0.691,-1.075,-0.739,-107.310,-125.300,194.250
0.665,-1.024,-0.713,-106.680,-128.800,201.390
0.646,-1.003,-0.699,-106.260,-130.620,207.060
0.636,-0.968,-0.682,-104.230,-132.650,211.890
0.636,-0.917,-0.655,-99.260,-134.190,218.750
0.615,-0.892,-0.645,-96.390,-134.610,222.600
0.604,-0.863,-0.637,-93.870,-134.680,224.980
0.579,-0.783,-0.617,-90.230,-135.520,228.480
0.543,-0.742,-0.592,-87.360,-136.290,230.720
0.499,-0.710,-0.585,-84.560,-136.010,233.450
0.453,-0.655,-0.569,-82.110,-134.890,235.830
0.416,-0.585,-0.556,-78.610,-133.980,235.760
0.373,-0.523,-0.548,-73.640,-131.810,236.320
0.318,-0.474,-0.557,-67.690,-125.650,237.300
0.288,-0.439,-0.558,-60.130,-120.750,236.320
0.262,-0.392,-0.525,-53.410,-117.110,234.780
0.222,-0.380,-0.513,-49.980,-113.330,230.790
0.171,-0.383,-0.509,-49.980,-108.990,227.150
0.153,-0.391,-0.513,-51.310,-105.770,222.740
0.163,-0.376,-0.514,-52.500,-102.410,216.650
0.162,-0.345,-0.506,-51.940,-100.450,210.140
0.131,-0.306,-0.493,-47.880,-99.050,203.980
0.101,-0.285,-0.494,-41.440,-96.250,198.030
0.075,-0.262,-0.485,-32.970,-92.960,194.460
0.048,-0.205,-0.482,-26.040,-89.180,191.730
0.013,-0.171,-0.483,-18.900,-84.140,189.630
-0.009,-0.187,-0.514,-16.240,-75.670,186.760
-0.015,-0.176,-0.529,-16.660,-69.930,183.470
-0.012,-0.178,-0.551,-22.120,-65.660,177.730
0.005,-0.194,-0.583,-25.830,-63.560,170.310
0.031,-0.189,-0.610,-24.850,-60.270,164.290
0.048,-0.158,-0.587,-19.250,-59.290,160.440
0.034,-0.170,-0.566,-12.810,-62.160,158.130
-0.004,-0.174,-0.566,-12.950,-61.530,166.250
-0.080,-0.276,-0.626,-20.580,-28.840,130.970
-0.019,-0.064,-0.576,-14.420,-31.990,136.780
-0.111,-0.067,-0.583,-11.690,-36.190,143.780
-0.081,-0.028,-0.571,-9.520,-36.050,145.390
-0.153,0.035,-0.575,-7.980,-28.700,143.010
-0.173,0.050,-0.603,-6.930,-11.900,119.700
-0.227,0.083,-0.553,-0.560,-11.130,116.830
-0.334,0.049,-0.597,6.300,-4.550,113.890
-0.325,-0.013,-0.590,7.980,-3.010,111.790
-0.298,0.070,-0.583,12.390,-4.620,114.730
-0.347,0.127,-0.627,19.460,-4.760,120.960
-0.392,0.114,-0.691,23.100,2.940,112.350
-0.412,0.212,-0.662,28.210,8.540,109.620
-0.493,0.248,-0.646,35.630,10.360,113.400
-0.498,0.241,-0.609,39.410,18.620,107.730
-0.539,0.282,-0.569,43.540,23.800,104.300
-0.573,0.253,-0.521,44.030,26.390,104.370
-0.615,0.212,-0.508,42.350,26.880,106.330
-0.641,0.203,-0.511,34.580,26.670,104.160
-0.660,0.235,-0.567,27.230,24.990,104.790
-0.695,0.285,-0.627,19.530,19.180,103.600
-0.663,0.318,-0.706,8.890,15.610,96.810
-0.701,0.366,-0.795,3.920,18.410,85.750
-0.698,0.401,-0.825,-0.980,24.850,73.290
-0.676,0.437,-0.832,-4.480,21.560,67.970
-0.702,0.431,-0.865,-7.560,9.030,66.850
-0.734,0.451,-0.887,-12.810,4.550,62.790
-0.774,0.515,-0.894,-17.990,3.080,56.770
-0.779,0.558,-0.887,-22.610,-0.420,49.070
-0.766,0.596,-0.884,-27.300,-7.280,38.290
-0.777,0.625,-0.905,-26.740,-14.630,33.250
-0.726,0.632,-0.952,-16.730,-20.020,18.480
-0.868,0.745,-0.911,-8.190,-30.170,9.940
-0.781,0.748,-0.954,-3.570,-36.330,7.630
-0.607,0.545,-0.989,-15.750,-41.510,-8.050
-0.630,0.512,-0.974,-24.990,-44.870,-27.860
-0.677,0.621,-0.919,-29.540,-52.220,-35.560
-0.676,0.589,-0.925,-27.370,-43.470,-48.440
-0.668,0.576,-0.866,-23.730,-45.780,-52.360
-0.622,0.514,-0.845,-21.490,-40.530,-66.360
-0.661,0.540,-0.796,-13.860,-39.200,-74.270
-0.626,0.509,-0.777,-5.740,-27.580,-89.740
-0.601,0.500,-0.752,3.150,-18.970,-95.270
-0.628,0.443,-0.746,10.080,-15.260,-101.430
-0.575,0.400,-0.720,18.760,-13.930,-104.510
-0.520,0.336,-0.728,19.880,-2.800,-120.540
-0.499,0.324,-0.682,23.310,-8.680,-119.420
-0.477,0.237,-0.706,19.460,-7.000,-126.560
-0.459,0.202,-0.691,15.540,-9.730,-134.680
-0.410,0.168,-0.686,15.260,-7.210,-145.110
-0.380,0.144,-0.673,15.400,-6.160,-148.470
-0.363,0.102,-0.651,16.030,-14.350,-149.310
-0.281,0.034,-0.661,13.790,3.640,-166.040
-0.287,0.069,-0.617,14.980,6.580,-171.010
-0.288,0.028,-0.576,19.810,5.250,-173.320

0.737,-1.589,-0.202,33.040,6.930,-101.150
0.776,-1.702,-0.194,31.360,5.600,-88.760
0.813,-1.774,-0.186,25.760,3.150,-75.600
0.823,-1.859,-0.187,14.770,0.280,-61.250
0.838,-1.930,-0.211,0.980,-3.850,-45.500
0.855,-1.949,-0.225,-12.250,-9.590,-28.490
0.851,-1.952,-0.235,-24.010,-13.020,-11.340
0.836,-1.948,-0.234,-53.550,-16.310,11.060
0.819,-1.967,-0.231,-53.760,-19.110,27.370
0.801,-1.975,-0.238,-68.320,-20.860,43.610
0.788,-1.941,-0.244,-80.990,-23.380,59.080
0.754,-1.932,-0.244,-95.760,-26.740,72.940
0.751,-1.925,-0.249,-111.580,-29.960,87.500
0.748,-1.908,-0.268,-127.470,-33.250,104.860
0.758,-1.887,-0.272,-146.090,-36.610,119.070
0.793,-1.866,-0.288,-158.620,-40.600,131.040
0.801,-1.816,-0.289,-169.400,-45.500,141.680
0.801,-1.747,-0.285,-178.780,-51.940,152.670
0.806,-1.706,-0.273,-188.580,-57.190,161.840
0.827,-1.684,-0.280,-196.910,-62.300,170.520
0.843,-1.607,-0.278,-202.020,-67.270,182.700
0.839,-1.513,-0.299,-205.940,-70.280,190.470
0.841,-1.441,-0.314,-206.430,-72.870,199.570
0.817,-1.357,-0.330,-202.930,-78.190,209.580
0.809,-1.269,-0.336,-198.170,-83.300,218.610
0.776,-1.221,-0.359,-193.410,-84.840,225.400
0.766,-1.193,-0.370,-190.330,-84.770,230.440
0.776,-1.173,-0.382,-190.610,-83.160,234.080
0.769,-1.074,-0.370,-186.060,-86.940,239.960
0.752,-1.044,-0.366,-183.400,-91.070,245.140
0.746,-1.001,-0.385,-180.670,-94.150,249.200
0.739,-0.918,-0.372,-175.490,-99.820,253.400
0.702,-0.855,-0.379,-169.190,-103.250,256.480
0.660,-0.809,-0.358,-162.120,-105.490,259.070
0.636,-0.796,-0.367,-158.200,-108.570,257.460
0.624,-0.706,-0.366,-148.400,-111.440,256.200
0.610,-0.662,-0.362,-142.030,-112.980,255.990
0.564,-0.615,-0.346,-135.800,-114.240,256.060
0.379,-0.579,-0.345,-129.430,-112.140,256.200
0.450,-0.548,-0.364,-123.410,-109.340,256.340
0.414,-0.478,-0.369,-115.570,-105.980,255.290
0.376,-0.399,-0.372,-104.930,-101.570,253.540
0.336,-0.367,-0.386,-93.940,-96.250,252.000
0.307,-0.364,-0.400,-87.920,-90.790,248.920
0.280,-0.317,-0.386,-80.220,-85.960,245.280
0.252,-0.286,-0.363,-73.220,-80.220,241.220
0.202,-0.292,-0.366,-69.300,-75.740,236.530
0.178,-0.283,-0.367,-67.130,-71.820,231.560
0.150,-0.229,-0.377,-63.490,-68.740,227.500
0.126,-0.194,-0.402,-58.520,-64.820,221.480
0.099,-0.184,-0.428,-50.680,-60.060,216.580
0.072,-0.165,-0.427,-45.430,-56.560,210.000
0.063,-0.149,-0.426,-43.540,-52.710,204.470
0.040,-0.144,-0.424,-42.210,-50.050,198.450
0.004,-0.118,-0.425,-40.880,-47.180,193.410
-0.021,-0.084,-0.427,-37.660,-45.920,190.260
-0.054,-0.082,-0.459,-35.700,-37.100,183.680
-0.079,-0.054,-0.469,-30.240,-33.670,164.920
-0.055,0.062,-0.470,-20.580,-20.510,165.200
-0.192,0.036,-0.471,-14.490,-13.650,162.750
-0.224,0.007,-0.468,-16.240,-6.930,163.310
-0.180,0.020,-0.459,-14.840,-5.670,162.330
-0.141,0.028,-0.472,-15.890,-3.990,151.690
-0.155,0.025,-0.538,-22.190,2.450,139.300
-0.220,0.060,-0.562,-23.450,9.100,127.820
-0.285,0.111,-0.571,-23.380,13.160,123.760
-0.311,0.097,-0.613,-25.830,22.750,108.010
-0.303,0.136,-0.611,-22.260,16.030,99.610
-0.288,0.156,-0.640,-13.020,8.330,98.140
-0.330,0.172,-0.653,-7.210,4.900,96.110
-0.366,0.164,-0.616,-2.170,0.140,97.790
-0.410,0.166,-0.616,0.140,-3.150,100.450
-0.402,0.145,-0.630,1.750,-6.230,102.270
-0.435,0.159,-0.644,1.190,-3.080,100.450
-0.505,0.177,-0.684,-4.970,3.570,93.240
-0.467,0.205,-0.719,-11.690,0.140,82.460
-0.452,0.237,-0.768,-14.630,-2.450,77.140
-0.494,0.232,-0.816,-27.720,-3.080,68.670
-0.508,0.284,-0.830,-33.250,-7.420,59.500
-0.509,0.354,-0.847,-34.230,-10.500,53.620
-0.569,0.410,-0.883,-30.240,-11.130,50.190
-0.646,0.476,-0.939,-21.840,-8.960,46.760
-0.671,0.543,-0.982,-8.820,-6.580,41.860
-0.704,0.589,-1.009,9.450,-6.020,42.070
-0.716,0.572,-1.031,17.150,-5.740,32.690
-0.720,0.662,-0.947,13.020,-8.610,35.420
-0.720,0.679,-1.215,35.840,-6.230,23.660
-0.664,0.673,-1.043,33.600,-13.930,8.540
-0.848,0.764,-1.043,40.740,-23.870,11.690
-0.660,0.707,-1.139,42.280,-22.680,-3.010
-0.639,0.593,-1.124,31.850,-34.650,-16.450
-0.650,0.543,-1.102,19.740,-44.030,-25.900
-0.606,0.466,-1.109,-0.630,-47.110,-45.220
-0.602,0.452,-1.052,-15.050,-52.570,-53.970
-0.646,0.450,-1.027,-25.480,-35.910,-68.530
-0.628,0.501,-1.012,-31.220,-49.210,-83.300
-0.586,0.482,-0.989,-32.830,-42.910,-99.540
-0.586,0.451,-0.965,-31.220,-39.550,-112.560
-0.589,0.389,-0.941,-27.930,-35.700,-119.560
-0.576,0.352,-0.905,-25.900,-34.020,-125.650
-0.541,0.332,-0.878,-21.280,-30.310,-130.480
-0.541,0.315,-0.845,-14.490,-26.180,-136.010
-0.509,0.278,-0.808,-7.280,-23.870,-139.650
-0.475,0.242,-0.778,3.710,-21.420,-142.380
-0.463,0.200,-0.745,12.460,-17.500,-144.480
-0.445,0.166,-0.717,21.560,-12.740,-147.070
-0.426,0.127,-0.670,29.820,-8.540,-148.610
-0.386,0.084,-0.638,36.120,-6.020,-149.590
-0.369,0.053,-0.619,42.210,-3.290,-150.780
-0.358,0.050,-0.596,48.440,0.350,-152.390
-0.349,0.040,-0.580,57.540,4.060,-154.770
-0.321,-0.025,-0.582,62.650,7.560,-158.060
-0.282,-0.074,-0.567,66.290,9.940,-162.050
-0.247,-0.108,-0.548,68.950,12.320,-165.900
-0.224,-0.142,-0.519,71.190,15.750,-169.470
-0.209,-0.179,-0.505,72.380,19.110,-171.570
-0.189,-0.216,-0.497,71.470,22.890,-173.740
-0.163,-0.251,-0.481,69.440,24.010,-178.080
-0.141,-0.278,-0.466,67.410,24.080,-184.870

0.858,-1.065,-0.595,42.490,67.830,-154.140
0.882,-1.074,-0.610,35.770,62.720,-145.880
0.903,-1.088,-0.609,31.570,56.840,-139.230
0.897,-1.128,-0.625,28.560,52.220,-131.600
0.910,-1.168,-0.652,26.670,48.370,-123.130
0.948,-1.213,-0.674,26.110,45.430,-114.660
0.966,-1.266,-0.687,22.470,41.020,-106.330
1.017,-1.383,-0.726,13.720,36.890,-97.860
1.025,-1.423,-0.756,7.770,31.220,-85.680
1.021,-1.465,-0.792,0.490,22.050,-70.630
1.036,-1.546,-0.837,-10.780,14.630,-51.800
1.047,-1.599,-0.882,-20.300,4.760,-35.560
1.054,-1.590,-0.911,-23.730,-0.490,-22.050
1.044,-1.598,-0.921,-19.880,-8.470,-1.400
0.961,-1.642,-0.955,-17.430,-14.910,19.600
0.926,-1.637,-0.954,-14.980,-18.760,39.970
0.882,-1.651,-0.950,-15.820,-22.680,64.820
0.851,-1.717,-0.948,-25.830,-27.580,80.500
0.846,-1.727,-0.948,-36.750,-34.370,95.760
0.856,-1.744,-0.940,-50.750,-43.050,109.690
0.884,-1.770,-0.940,-65.310,-53.760,123.830
0.924,-1.745,-0.930,-76.090,-70.000,137.480
0.933,-1.681,-0.913,-83.160,-80.920,150.640
0.933,-1.633,-0.878,-89.390,-90.230,163.450
0.940,-1.598,-0.845,-97.720,-99.330,179.340
0.960,-1.523,-0.818,-105.840,-108.080,191.380
0.973,-1.441,-0.805,-108.010,-115.500,202.930
0.978,-1.359,-0.799,-107.870,-120.960,214.200
0.988,-1.274,-0.773,-106.260,-127.050,224.630
0.993,-1.199,-0.747,-104.370,-131.810,234.080
0.982,-1.135,-0.715,-101.920,-136.430,242.410
0.955,-1.075,-0.684,-99.470,-140.070,252.070
0.933,-1.003,-0.640,-98.420,-143.500,257.810
0.910,-0.949,-0.608,-96.530,-146.790,262.850
0.887,-0.901,-0.556,-96.810,-151.760,266.910
0.871,-0.869,-0.544,-98.700,-154.980,268.660
0.856,-0.828,-0.532,-99.470,-157.640,270.550
0.839,-0.752,-0.513,-97.720,-159.670,272.300
0.817,-0.699,-0.500,-95.410,-161.070,273.140
0.793,-0.640,-0.478,-90.930,-161.770,275.030
0.748,-0.553,-0.444,-83.230,-161.630,275.870
0.696,-0.496,-0.427,-74.340,-159.880,277.410
0.645,-0.493,-0.410,-68.040,-157.150,278.880
0.592,-0.448,-0.366,-63.770,-155.050,279.930
0.534,-0.443,-0.346,-64.610,-153.370,279.720
0.470,-0.405,-0.325,-65.100,-150.990,279.580
0.439,-0.379,-0.305,-68.180,-149.100,278.040
0.387,-0.390,-0.345,-69.300,-148.610,276.360
0.390,-0.336,-0.341,-67.760,-143.080,270.130
0.331,-0.260,-0.341,-60.900,-139.930,267.540
0.283,-0.253,-0.349,-55.860,-132.930,259.420
0.256,-0.215,-0.347,-52.430,-126.770,253.680
0.210,-0.198,-0.363,-46.480,-120.400,248.990
0.168,-0.156,-0.378,-40.880,-110.740,245.980
0.140,-0.162,-0.408,-37.730,-104.930,241.640
0.123,-0.150,-0.407,-36.470,-99.750,238.490
0.080,-0.116,-0.403,-33.530,-94.360,233.030
0.027,-0.098,-0.403,-30.170,-88.340,228.620
0.012,-0.104,-0.399,-27.580,-81.970,224.070
-0.001,-0.082,-0.401,-24.150,-75.460,220.360
-0.022,-0.039,-0.375,-19.110,-73.850,215.950
-0.076,-0.007,-0.380,-14.070,-71.400,212.380
-0.168,0.048,-0.410,-5.810,-63.700,214.060
-0.202,0.041,-0.458,-4.550,-50.680,200.480
-0.261,0.158,-0.423,5.040,-43.680,198.870
-0.279,0.079,-0.455,8.120,-38.570,195.440
-0.224,0.059,-0.457,9.100,-36.050,191.800
-0.266,0.089,-0.467,8.890,-28.700,186.270
-0.341,0.088,-0.462,7.560,-19.110,178.850
-0.350,0.117,-0.485,1.400,-9.240,172.340
-0.398,0.141,-0.532,-2.800,-6.650,164.500
-0.421,0.203,-0.559,-2.870,-3.780,154.840
-0.456,0.240,-0.585,-5.390,1.540,147.490
-0.492,0.235,-0.601,-3.500,0.910,140.000
-0.502,0.257,-0.584,-0.490,-2.240,133.910
-0.515,0.240,-0.575,0.070,-1.330,125.440
-0.544,0.224,-0.589,0.770,-3.220,119.490
-0.554,0.242,-0.615,3.360,-3.570,113.610
-0.577,0.303,-0.649,7.140,-0.210,104.090
-0.618,0.317,-0.691,7.420,5.040,96.950
-0.617,0.339,-0.716,6.090,6.090,91.000
-0.608,0.369,-0.746,5.950,5.040,83.020
-0.618,0.405,-0.765,7.280,4.900,75.600
-0.646,0.450,-0.778,8.540,5.460,69.580
-0.669,0.497,-0.825,9.590,6.370,63.280
-0.680,0.555,-0.852,12.250,6.860,56.980
-0.706,0.628,-0.887,16.170,6.510,51.170
-0.723,0.680,-0.924,18.340,4.760,43.470
-0.722,0.722,-0.950,19.320,1.400,34.440
-0.714,0.760,-0.972,19.110,-3.150,20.930
-0.713,0.815,-0.980,17.500,-8.750,9.870
-0.716,0.822,-0.968,16.170,-15.260,-1.470
-0.715,0.828,-0.952,13.790,-19.950,-13.020
-0.719,0.835,-0.948,10.920,-21.980,-25.200
-0.706,0.810,-0.956,7.350,-26.180,-37.940
-0.685,0.804,-0.928,3.150,-31.010,-48.720
-0.673,0.772,-0.901,-3.920,-35.000,-58.520
-0.694,0.737,-0.859,-17.850,-38.080,-73.150
-0.668,0.763,-0.836,-22.540,-39.340,-84.700
-0.650,0.799,-0.820,-18.690,-34.580,-92.680
-0.664,0.772,-0.803,-13.370,-30.870,-101.150
-0.635,0.712,-0.804,-6.580,-28.280,-107.590
-0.601,0.627,-0.793,0.490,-23.380,-116.970
-0.576,0.555,-0.769,3.500,-18.410,-124.040
-0.543,0.484,-0.750,5.040,-15.540,-128.870
-0.530,0.419,-0.747,6.370,-8.890,-135.730
-0.501,0.366,-0.714,7.840,-3.780,-142.730
-0.471,0.302,-0.684,8.330,0.000,-147.350
-0.463,0.224,-0.664,8.400,2.940,-150.570
-0.452,0.170,-0.656,9.100,6.020,-153.510
-0.440,0.129,-0.641,10.780,9.730,-156.100
-0.430,0.088,-0.618,14.210,13.440,-159.110
-0.421,0.052,-0.604,16.590,17.780,-161.560
-0.413,0.012,-0.589,20.370,22.260,-163.730
-0.399,-0.013,-0.561,26.600,26.180,-165.760
-0.377,-0.055,-0.541,34.020,28.980,-169.190
-0.355,-0.068,-0.530,37.800,32.060,-170.660
-0.337,-0.111,-0.547,40.950,35.910,-173.320
-0.320,-0.145,-0.526,44.240,40.110,-175.070

0.747,-1.063,-0.759,25.970,97.160,-145.040
0.773,-1.051,-0.769,35.000,94.290,-137.970
0.811,-1.127,-0.789,40.530,91.280,-129.290
0.877,-1.200,-0.823,45.780,82.250,-120.190
0.921,-1.236,-0.839,49.070,73.220,-109.270
0.951,-1.310,-0.866,49.770,63.140,-98.070
0.970,-1.394,-0.889,47.110,52.080,-86.030
1.006,-1.511,-0.909,37.870,39.970,-71.960
1.054,-1.629,-0.946,23.100,26.880,-52.500
1.064,-1.658,-0.975,13.580,13.860,-37.730
1.044,-1.661,-0.999,4.970,2.100,-19.110
0.983,-1.651,-1.021,-2.520,-7.420,-0.910
0.891,-1.634,-1.029,-8.680,-17.570,17.710
0.836,-1.634,-1.040,-15.120,-22.820,35.560
0.806,-1.640,-1.046,-22.400,-27.860,52.010
0.777,-1.651,-1.041,-35.070,-33.390,71.540
0.742,-1.642,-1.035,-44.310,-39.200,83.230
0.695,-1.646,-1.019,-52.220,-46.340,95.760
0.683,-1.654,-0.980,-62.510,-55.580,106.820
0.681,-1.643,-0.958,-74.970,-62.580,115.290
0.684,-1.591,-0.952,-85.330,-69.020,140.840
0.669,-1.506,-0.941,-94.990,-80.220,141.050
0.669,-1.461,-0.951,-103.880,-88.760,150.640
0.698,-1.409,-0.952,-110.390,-98.490,160.160
0.725,-1.348,-0.928,-113.470,-111.090,168.140
0.730,-1.302,-0.902,-115.570,-119.140,175.070
0.721,-1.205,-0.854,-113.890,-126.350,182.560
0.696,-1.139,-0.806,-111.090,-131.670,191.940
0.692,-1.121,-0.771,-108.710,-135.450,198.940
0.695,-1.077,-0.731,-105.210,-139.090,204.470
0.693,-1.031,-0.685,-100.870,-142.240,208.670
0.678,-1.000,-0.648,-97.720,-144.830,212.800
0.660,-0.990,-0.593,-100.940,-147.910,215.740
0.661,-0.975,-0.563,-106.610,-151.690,217.140
0.641,-0.930,-0.542,-109.270,-155.120,218.400
0.634,-0.881,-0.532,-106.470,-157.780,221.970
0.622,-0.802,-0.525,-100.800,-159.460,225.470
0.611,-0.789,-0.526,-96.810,-159.600,228.340
0.588,-0.740,-0.510,-93.730,-159.600,232.540
0.551,-0.704,-0.495,-93.100,-158.760,236.530
0.515,-0.665,-0.495,-93.520,-157.780,239.750
0.470,-0.612,-0.471,-92.330,-156.030,242.900
0.433,-0.581,-0.457,-94.290,-154.350,246.050
0.409,-0.586,-0.454,-100.170,-153.650,246.680
0.404,-0.546,-0.467,-100.030,-153.370,247.590
0.388,-0.470,-0.460,-95.760,-153.090,247.590
0.332,-0.395,-0.427,-87.990,-151.550,247.240
0.251,-0.354,-0.420,-79.660,-146.370,247.940
0.191,-0.340,-0.435,-74.480,-139.160,248.430
0.175,-0.300,-0.438,-66.500,-134.260,246.190
0.152,-0.237,-0.401,-59.080,-131.040,241.780
0.108,-0.257,-0.398,-54.950,-126.000,237.370
0.073,-0.283,-0.424,-51.730,-118.440,234.430
0.072,-0.243,-0.408,-47.530,-114.310,231.700
0.059,-0.218,-0.431,-47.810,-110.530,229.320
0.030,-0.197,-0.449,-45.430,-106.750,226.450
0.005,-0.115,-0.477,-40.460,-102.200,223.510
-0.026,-0.036,-0.469,-33.530,-97.650,221.410
-0.073,0.001,-0.441,-28.980,-93.520,218.890
-0.119,-0.010,-0.417,-26.950,-87.430,215.950
-0.147,-0.046,-0.428,-26.390,-86.660,212.100
-0.157,-0.009,-0.432,-23.100,-78.120,210.210
-0.153,0.047,-0.422,-19.670,-73.080,197.610
-0.314,0.176,-0.448,-7.070,-59.710,198.800
-0.295,0.132,-0.484,0.210,-53.060,197.330
-0.223,0.166,-0.485,6.790,-49.560,197.540
-0.228,0.189,-0.465,13.020,-44.450,195.230
-0.287,0.161,-0.448,13.370,-35.280,185.920
-0.289,0.142,-0.446,4.340,-21.910,171.920
-0.329,0.126,-0.455,-3.080,-14.560,164.360
-0.346,0.185,-0.478,-8.400,-8.120,159.320
-0.412,0.291,-0.529,-2.800,-2.660,154.350
-0.413,0.366,-0.553,4.340,-3.290,152.880
-0.418,0.402,-0.595,7.840,-0.980,148.190
-0.428,0.405,-0.622,14.070,-4.410,143.710
-0.415,0.432,-0.612,21.700,-7.490,139.510
-0.482,0.459,-0.595,28.770,-12.110,141.750
-0.530,0.461,-0.615,32.130,-13.020,141.400
-0.547,0.489,-0.633,34.300,-10.920,135.380
-0.544,0.548,-0.646,38.360,-11.410,130.970
-0.567,0.554,-0.696,43.120,-11.620,125.370
-0.599,0.571,-0.731,42.770,-8.400,116.900
-0.575,0.597,-0.760,40.600,-9.100,108.570
-0.588,0.630,-0.790,38.920,-11.130,98.420
-0.593,0.667,-0.824,38.920,-11.480,88.760
-0.650,0.713,-0.829,36.820,-10.570,78.120
-0.658,0.760,-0.821,35.980,-8.260,69.720
-0.797,0.956,-0.732,39.690,-11.760,62.160
-0.542,0.850,-0.833,40.530,-1.680,24.360
-0.822,1.091,-0.736,31.570,-4.900,17.220
-0.842,1.055,-0.852,40.250,-2.660,7.840
-0.683,0.853,-0.865,25.550,-8.680,-11.550
-0.724,0.898,-0.813,15.190,-13.860,-21.560
-0.756,0.922,-0.776,10.640,-21.070,-27.160
-0.719,0.870,-0.785,3.780,-30.730,-32.900
-0.686,0.801,-0.792,-8.470,-33.390,-47.670
-0.677,0.799,-0.800,-17.920,-37.100,-57.400
-0.701,0.812,-0.802,-16.100,-33.460,-71.400
-0.707,0.865,-0.779,-4.410,-26.880,-79.030
-0.661,0.774,-0.782,3.500,-19.880,-91.910
-0.630,0.684,-0.778,7.420,-18.830,-98.770
-0.638,0.573,-0.777,5.460,-16.800,-109.830
-0.617,0.560,-0.760,3.780,-15.470,-118.580
-0.626,0.523,-0.755,6.160,-10.500,-129.710
-0.584,0.496,-0.739,9.030,-2.450,-137.900
-0.577,0.446,-0.713,12.880,3.360,-142.450
-0.548,0.379,-0.717,16.240,7.630,-146.930
-0.490,0.317,-0.712,19.950,9.940,-150.290
-0.454,0.256,-0.716,21.420,12.180,-152.810
-0.418,0.163,-0.702,21.280,10.500,-156.660
-0.383,0.124,-0.689,19.460,11.480,-160.300
-0.396,0.105,-0.660,17.710,14.000,-164.710
-0.381,0.080,-0.627,16.310,17.010,-168.560
-0.379,0.065,-0.591,15.330,26.460,-174.510
-0.386,0.073,-0.551,12.950,34.650,-181.440
-0.320,0.063,-0.520,13.930,33.880,-185.500
-0.273,0.057,-0.519,23.450,28.770,-181.650
-0.317,0.036,-0.513,29.470,29.050,-182.630
-0.320,0.011,-0.521,36.750,32.060,-183.330

